A_X[mg]	A_Y[mg]	A_Z[mg]	G_X[dps]	G_Y[dps]	G_Z[dps]	
49.715000	12.078000	1000.400024	0.656250	-0.214375	-0.936250
46.237999	10.126000	1000.888000	0.743750	-0.144375	-0.953750
47.824001	13.359000	999.911987	0.717500	-0.201250	-0.905625
46.116001	11.834001	1004.731018	0.770000	-0.105000	-0.923125
49.227001	14.396000	1000.888000	0.866250	-0.122500	-0.997500
47.945999	8.235000	1003.083984	0.787500	-0.100625	-0.984375
45.262001	12.017000	1000.278015	0.546875	-0.078750	-0.927500
49.105000	9.760000	1000.522034	0.573125	-0.061250	-0.993125
44.408001	14.457000	999.668030	0.665000	-0.048125	-1.054375
48.861000	10.370000	998.325989	0.748125	0.000000	-1.080625
48.434002	14.823000	1001.559021	0.682500	-0.144375	-1.098125
45.506001	12.200000	1001.986023	0.560000	-0.271250	-1.063125
45.872002	12.200000	1001.986023	0.713125	-0.083125	-0.953750
49.348999	13.786000	1002.230042	0.787500	-0.070000	-0.966875
45.628002	11.834001	1001.742004	0.844375	-0.210000	-0.783125
42.577999	19.337000	999.546021	0.875000	-0.328125	-0.879375
46.542999	10.065001	998.447998	0.704375	-0.266875	-0.945000
44.408001	10.614000	998.936035	0.931875	-0.223125	-1.010625
46.237999	12.322001	1000.156006	0.761250	-0.144375	-0.993125
45.628002	15.555000	1001.132019	1.006250	-0.280000	-1.076250
46.482002	12.810000	1001.986023	0.752500	-0.188125	-0.953750
47.945999	14.518001	1000.033997	0.988750	-0.161875	-0.984375
46.116001	12.810000	1000.278015	1.058750	-0.253750	-0.853125
43.798000	15.372000	1003.389038	0.984375	-0.161875	-1.019375
47.275002	14.396000	1000.643982	0.568750	-0.205625	-0.927500
46.970001	11.834001	1003.205994	0.879375	-0.262500	-0.953750
43.310001	11.590000	998.814026	0.958125	-0.367500	-1.076250
48.250999	11.834001	1001.924988	0.809375	-0.253750	-1.089375
51.789001	15.921000	1001.864014	0.796250	-0.140000	-0.931875
45.445000	14.884000	1002.596008	0.765625	-0.183750	-0.936250
41.968002	10.126000	1000.400024	0.765625	-0.043750	-0.927500
46.665001	13.115000	1002.596008	0.450625	-0.043750	-0.927500
46.665001	13.115000	1002.596008	0.621250	-0.109375	-1.041250
49.593002	10.492001	997.716003	0.896875	-0.188125	-0.975625
45.750000	12.566000	1001.070984	0.840000	-0.175000	-1.019375
46.360001	12.078000	999.546021	0.800625	-0.175000	-1.041250
44.774002	12.078000	1000.400024	0.796250	-0.341250	-0.975625
48.617001	16.409000	999.790039	1.071875	-0.301875	-1.028125
45.993999	10.675000	999.668030	0.984375	-0.153125	-1.067500
47.458000	13.420000	1001.497986	0.844375	-0.166250	-0.980000
50.691002	13.542000	1004.364990	0.752500	-0.118125	-0.831250
48.556000	8.662000	1003.205994	0.822500	-0.201250	-0.910000
43.493000	10.492001	1001.132019	0.673750	-0.153125	-1.076250
46.177002	14.457000	1000.033997	0.791875	-0.249375	-1.019375
47.580002	12.444000	1002.230042	0.612500	0.030625	-0.936250
49.653999	8.784000	1000.643982	0.962500	-0.148750	-0.883750
46.848000	12.871000	1000.156006	0.730625	-0.205625	-1.010625
46.726002	15.921000	1001.132019	0.844375	-0.109375	-0.997500
42.944000	17.812000	1001.742004	0.896875	-0.030625	-1.050000
50.691002	12.566000	1001.497986	0.783125	-0.131250	-0.997500
45.506001	12.322001	1001.619995	0.831250	-0.245000	-1.023750
45.506001	12.566000	1003.205994	0.822500	-0.192500	-0.984375
45.506001	15.006001	1002.840027	0.826875	-0.157500	-0.861875
48.861000	12.200000	999.057983	1.054375	-0.161875	-0.822500
41.418999	14.579000	1000.765991	0.896875	-0.336875	-0.940625
44.469002	12.932000	999.790039	0.818125	-0.227500	-0.993125
45.872002	10.492001	1000.033997	0.800625	-0.188125	-0.980000
44.774002	11.346000	1001.986023	0.905625	-0.122500	-0.892500
48.861000	14.213000	1004.059998	0.975625	-0.144375	-0.888125
46.970001	13.420000	1001.376038	0.603750	-0.061250	-0.918750
45.383999	12.322001	1003.694031	0.879375	-0.144375	-0.896875
44.042000	7.930000	1000.522034	0.993125	-0.192500	-0.918750
42.212002	13.237000	997.350037	0.870625	-0.310625	-0.931875
48.983002	13.664001	1001.070984	0.761250	-0.109375	-0.931875
51.667000	10.980000	998.936035	0.888125	-0.091875	-1.006250
45.445000	15.189000	1001.559021	0.490000	-0.078750	-0.997500
45.018002	11.712000	1000.156006	0.853125	-0.310625	-0.993125
46.482002	13.298000	1002.413025	0.704375	-0.175000	-0.975625
46.237999	16.042999	999.424011	0.665000	-0.052500	-0.988750
50.569000	12.200000	1002.230042	0.901250	-0.140000	-1.006250
48.068001	14.030000	997.593994	0.971250	-0.201250	-1.036875
47.824001	13.786000	999.302002	0.791875	-0.052500	-0.980000
45.506001	13.298000	1002.413025	0.682500	-0.100625	-1.006250
46.482002	13.664001	1003.450012	0.665000	-0.039375	-0.962500
52.399002	15.372000	999.546021	0.984375	-0.288750	-1.093750
42.882999	12.566000	1001.132019	1.010625	-0.253750	-1.045625
48.617001	10.614000	1003.083984	0.914375	-0.258125	-0.971250
42.272999	12.322001	998.692017	0.949375	-0.253750	-1.001875
45.079002	15.921000	999.668030	0.984375	-0.275625	-0.993125
46.970001	10.736000	1000.278015	0.853125	-0.258125	-1.028125
46.482002	15.921000	1001.132019	0.774375	-0.188125	-1.006250
46.970001	14.152000	1000.156006	0.958125	-0.210000	-0.945000
44.529999	10.248000	1004.731018	0.949375	-0.293125	-0.848750
42.944000	11.712000	999.546021	1.041250	-0.192500	-0.931875
44.529999	16.653000	1000.643982	1.023750	-0.262500	-0.892500
44.774002	13.786000	997.593994	0.669375	-0.065625	-0.949375
44.042000	10.248000	1000.278015	0.770000	-0.293125	-0.940625
45.993999	13.359000	1003.999023	0.953750	-0.363125	-1.050000
47.214001	10.736000	1000.400024	0.778750	-0.280000	-1.023750
46.970001	19.459000	1003.205994	0.739375	-0.166250	-0.993125
50.935001	12.261000	1003.816040	0.826875	-0.122500	-0.962500
45.506001	14.274000	1001.619995	0.796250	-0.227500	-0.993125
47.336002	13.420000	998.570007	0.813750	-0.170625	-0.927500
48.434002	14.274000	1000.522034	0.739375	-0.166250	-1.054375
46.604000	13.176001	1002.473999	0.621250	-0.140000	-0.971250
49.288002	11.346000	1003.450012	0.765625	-0.236250	-0.980000
44.285999	15.921000	1001.986023	0.783125	-0.074375	-0.966875
41.236000	13.542000	1003.083984	0.831250	-0.052500	-0.875000
46.909000	9.028000	1001.497986	0.818125	-0.227500	-0.971250
41.846001	12.505000	999.668030	0.918750	-0.183750	-1.093750
45.688999	12.322001	1006.439026	0.879375	-0.140000	-1.001875
43.188000	16.531000	1003.816040	0.857500	-0.275625	-0.892500
43.554001	11.163000	1004.669983	1.028125	-0.406875	-0.918750
46.116001	16.531000	1000.278015	0.875000	-0.323750	-0.918750
45.872002	9.821000	1004.731018	0.993125	-0.336875	-0.993125
43.920002	14.823000	1002.596008	0.756875	-0.310625	-1.085000
48.007000	15.250000	996.923035	0.656250	-0.148750	-1.041250
43.798000	11.102000	999.363037	0.726250	0.000000	-0.940625
47.031002	15.067000	995.885986	0.743750	-0.183750	-0.975625
46.482002	12.932000	1000.095032	0.778750	-0.231875	-0.927500
49.166000	12.444000	1002.778992	0.643125	-0.201250	-1.054375
48.190002	15.311000	1000.400024	0.625625	-0.161875	-0.988750
48.434002	16.592001	1003.877014	0.962500	-0.153125	-1.023750
42.272999	14.152000	1006.561035	0.861875	-0.227500	-1.010625
48.861000	16.896999	998.752991	0.691250	-0.175000	-0.892500
53.008999	14.030000	1002.291016	0.892500	-0.280000	-0.905625
48.799999	13.908000	1002.840027	0.630000	-0.100625	-0.953750
45.872002	12.200000	999.302002	0.603750	-0.140000	-1.041250
48.373001	11.346000	1002.169006	0.770000	-0.161875	-0.984375
48.678001	11.224000	997.960022	0.962500	-0.258125	-0.910000
45.872002	15.433001	1007.293030	0.896875	-0.227500	-0.918750
46.482002	13.298000	1002.718018	0.682500	-0.170625	-0.949375
52.399002	13.908000	1003.572021	0.818125	-0.188125	-1.019375
46.055000	15.982000	1002.596008	0.818125	-0.188125	-1.019375
46.055000	15.982000	997.471985	0.949375	-0.306250	-1.019375
49.227001	11.956000	997.471985	0.717500	-0.236250	-0.883750
47.091999	14.701000	1001.924988	0.826875	-0.245000	-0.861875
42.456001	18.483000	1002.596008	1.019375	-0.214375	-0.923125
45.811001	13.908000	1002.230042	0.774375	-0.087500	-0.940625
48.373001	9.882000	1001.986023	0.896875	-0.166250	-0.984375
48.190002	12.078000	1003.816040	0.879375	-0.131250	-0.927500
46.604000	14.396000	999.911987	0.980000	-0.166250	-1.063125
42.456001	15.860001	1004.975037	0.945000	-0.245000	-0.945000
45.688999	11.956000	1004.059998	0.945000	-0.424375	-0.918750
49.227001	9.882000	999.546021	0.918750	-0.249375	-0.949375
44.896000	14.823000	1003.999023	0.949375	-0.231875	-1.015000
46.116001	12.932000	1004.426025	0.980000	-0.284375	-1.067500
42.944000	11.956000	1001.376038	0.756875	-0.043750	-1.001875
48.250999	16.775000	997.471985	0.669375	0.017500	-1.006250
49.288002	12.932000	1001.070984	0.730625	-0.039375	-0.940625
45.993999	13.786000	997.838013	0.739375	0.021875	-0.945000
46.848000	15.616000	999.424011	0.603750	-0.056875	-0.966875
44.652000	12.810000	1004.364990	0.831250	-0.153125	-0.980000
47.396999	15.006001	1004.059998	0.691250	0.000000	-1.085000
52.277000	10.614000	1001.010010	0.735000	-0.266875	-0.914375
43.493000	10.004000	1000.643982	0.647500	-0.284375	-0.910000
50.569000	12.993000	1001.376038	0.756875	-0.131250	-0.966875
47.702000	10.004000	1000.522034	0.586250	-0.131250	-1.067500
48.068001	10.004000	1003.267029	0.616875	0.078750	-1.045625
45.383999	14.091001	999.668030	0.813750	-0.271250	-0.966875
47.640999	12.566000	1004.242981	0.962500	-0.441875	-0.910000
48.922001	15.799000	1007.415039	0.761250	-0.170625	-0.931875
43.493000	15.982000	997.044983	0.857500	-0.328125	-0.971250
46.055000	13.420000	1003.023010	0.875000	-0.358750	-0.853125
47.580002	13.176001	1002.230042	0.560000	-0.231875	-0.914375
45.018002	12.688000	1001.986023	0.638750	-0.118125	-1.045625
42.944000	11.468000	1001.497986	0.875000	-0.087500	-0.980000
48.739002	13.054000	1000.156006	0.971250	-0.148750	-0.984375
45.018002	13.542000	999.424011	0.713125	-0.135625	-0.962500
46.848000	12.566000	996.862000	0.791875	-0.218750	-0.958125
47.214001	13.298000	1000.949036	0.630000	-0.240625	-1.015000
49.043999	12.566000	1001.864014	0.678125	-0.210000	-0.988750
47.091999	13.176001	970.754028	-0.490000	1.588125	-1.176875
44.285999	9.638000	999.179993	-0.288750	0.778750	-1.023750
45.383999	9.028000	1005.585022	1.666875	-0.896875	-0.953750
118.096001	-17.629000	998.752991	1.885625	-1.785000	-12.508125
-2.623000	36.783001	998.936035	0.835625	-0.363125	-4.943750
48.983002	13.481000	1002.413025	0.393750	0.096250	-1.137500
117.668999	-15.616000	989.419983	0.918750	-0.603750	-7.402500
-76.189003	50.813000	1011.197021	1.190000	-0.665000	-11.602500
22.875000	7.503000	1001.070984	0.743750	-0.179375	-3.381875
-115.045998	38.307999	1041.818970	0.428750	1.080625	13.173125
183.427002	2.318000	995.520020	0.481250	1.741250	27.562500
22.387001	34.038002	1000.095032	1.233750	0.188125	6.803125
330.253998	23.851000	1003.267029	0.533750	-1.036875	-13.335000
-159.514999	28.609001	1012.173035	-0.126875	-1.308125	-20.396250
7.564000	11.102000	1002.291016	0.980000	-0.656250	-6.409375
-70.272003	32.269001	996.923035	0.183750	0.140000	0.713125
108.885002	-11.834001	1000.949036	-0.017500	0.503125	4.186875
53.618999	5.368000	1000.522034	0.446250	0.157500	1.601250
368.501007	-18.483000	1058.593994	3.430000	-2.537500	-12.114375
-204.227997	-76.677002	1091.534058	2.432500	-5.656875	-45.911251
-162.138000	18.177999	1002.291016	0.756875	-1.741250	-17.933125
-42.700001	33.062000	995.093018	0.030625	0.280000	0.144375
-75.762001	69.723000	1014.247009	-4.256875	5.915000	11.921875
165.737000	-39.284000	1000.888000	0.341250	0.262500	9.695000
195.078003	33.306000	991.067017	6.177500	-5.897500	3.613750
104.981003	26.657000	992.835999	5.306875	-4.838750	-24.950624
-87.291000	-44.347000	1000.460999	1.299375	-1.225000	-14.087500
10.919000	11.041000	1003.999023	0.490000	0.105000	1.421875
-111.020004	75.701004	1028.155029	-1.618750	3.001250	10.889375
288.407990	-58.132999	1008.817993	1.697500	-0.822500	15.627500
166.529999	44.469002	996.557007	3.351250	-2.410625	-4.856250
33.000999	45.139999	1011.135986	5.604375	-4.453750	-37.349377
-10.431000	-35.014000	997.350037	0.822500	-1.185625	-16.025625
-71.858002	35.196999	1011.135986	-0.673750	1.916250	4.449375
114.802002	78.445999	1072.624023	-2.056250	2.506875	38.189377
341.782990	-98.392998	1007.720032	0.796250	-0.253750	18.291876
248.148010	-85.155998	992.835999	4.431875	-3.058125	-19.621876
-213.805008	-70.150002	1026.568970	7.704375	-4.624375	-47.770626
23.851000	20.007999	992.348022	2.401875	-0.765625	-10.714375
-49.837002	35.380001	987.590027	-0.249375	2.200625	9.428125
286.334015	1.708000	970.388000	-1.023750	2.550625	35.595001
267.912018	49.897999	973.072021	3.224375	-4.230625	1.596875
21.106001	-70.698997	985.760010	1.666875	-1.356250	-23.603125
35.624001	12.017000	1001.132019	0.463750	0.026250	-6.829375
7.137000	11.346000	1007.171021	-0.061250	1.811250	7.503125
367.890991	-3.050000	984.356995	-0.105000	4.182500	23.340626
144.509003	40.625999	985.150024	0.083125	1.264375	2.751875
67.954002	56.119999	1002.840027	3.683750	-2.345000	-20.059376
25.437000	-5.368000	998.325989	2.161250	-2.130625	-7.253750
3.965000	28.243000	1018.760986	-0.065625	1.163750	7.778750
312.929993	-33.672001	987.468018	-0.297500	3.928750	19.245625
88.633003	44.042000	994.726990	-1.925000	4.270000	7.511875
200.628998	-39.466999	976.244019	0.428750	-3.093125	-13.422500
-54.229000	4.148000	988.078003	0.284375	-2.340625	-12.219375
-160.307999	-4.331000	988.078003	0.205625	-0.218750	1.526875
216.977005	-80.031998	1036.390015	-0.240625	3.303125	20.190624
371.246002	-37.820000	989.541992	2.336250	1.513750	27.951876
399.306000	-41.480000	996.312988	1.299375	-2.800000	-28.800625
-293.105011	85.948997	993.690002	3.045000	-3.268125	-46.821251
-125.416000	-60.084999	998.875000	0.975625	-0.529375	-4.873750
36.050999	36.050999	1009.549988	0.975625	-0.529375	31.941875
36.050999	42.761002	999.729004	-2.594375	2.629375	31.941875
285.235992	42.761002	999.729004	0.673750	0.756875	21.752501
311.832001	32.513000	984.661987	2.848125	-1.277500	-28.433125
-274.865997	24.461000	983.686035	4.663750	-3.031875	-38.044998
-174.033005	-76.799004	991.432983	1.255625	-0.538125	2.677500
64.111000	47.702000	999.729004	-2.279375	1.964375	41.514374
295.484009	104.554001	996.496033	0.669375	0.013125	18.160625
347.273010	90.767998	1010.770020	3.071250	-2.878750	-36.286251
-256.200012	-49.776001	1018.882996	3.062500	-1.881250	-26.481874
-130.296005	-32.574001	995.458984	0.848750	-0.144375	5.936875
76.920998	36.660999	1022.970032	-1.736875	1.662500	29.006250
62.464001	13.969000	993.812012	0.752500	0.048125	7.266875
205.753006	56.242001	1007.109985	3.889375	-3.644375	-27.737499
-167.750000	-43.737000	1015.101013	1.155000	-1.706250	-16.738750
-68.625000	-52.033001	1008.390991	-0.371875	1.045625	8.736875
109.495003	-3.294000	990.640015	-1.728125	2.095625	23.113125
79.422005	28.059999	991.738037	0.161875	0.481250	5.639375
28.914000	31.537001	1004.914001	2.310000	-1.255625	-4.860625
10.614000	-6.161000	1004.548035	0.949375	-0.555625	-2.380000
52.826000	12.383000	999.790039	0.651875	0.000000	0.507500
47.702000	23.180000	1001.864014	0.573125	-0.026250	-0.175000
45.506001	20.740000	1001.010010	0.105000	0.043750	-0.520625
47.580002	20.130001	999.790039	0.297500	0.196875	-0.599375
49.410000	21.228001	1002.108032	0.651875	-0.183750	-0.739375
45.506001	22.570000	1000.156006	0.857500	-0.271250	-0.595000
50.202999	18.422001	1003.145020	1.067500	-0.380625	-0.761250
47.458000	15.860001	1001.132019	0.774375	-0.065625	-0.896875
49.776001	15.982000	1003.755005	0.923125	-0.323750	-0.962500
47.824001	16.469999	1000.765991	0.730625	-0.157500	-1.063125
53.131001	15.738000	1004.121033	0.748125	0.000000	-0.888125
41.663002	15.128000	1000.643982	0.875000	-0.021875	-0.778750
47.275002	16.958000	999.790039	1.338750	0.196875	-0.358750
49.837002	19.337000	999.911987	1.413125	-0.231875	-0.590625
47.336002	17.323999	1000.888000	0.949375	-0.122500	-0.686875
56.669003	19.703001	1003.510986	0.555625	-0.118125	-0.682500
46.542999	15.250000	1004.426025	0.870625	-0.306250	-0.669375
51.667000	16.836000	999.790039	1.176875	-0.319375	-0.975625
64.903999	13.298000	1003.389038	0.892500	-0.065625	-2.568125
39.345001	16.165001	1004.791992	0.669375	0.100625	-1.785000
42.517002	20.801001	1003.083984	0.756875	0.109375	-0.844375
67.282997	15.067000	987.468018	0.621250	0.555625	3.342500
85.217003	22.631001	1002.230042	0.166250	0.420000	5.831875
109.128998	27.632999	1002.108032	1.382500	-0.905625	1.544375
135.664001	43.798000	1000.400024	3.154375	-1.916250	-2.677500
-149.022995	13.664001	988.017029	1.001875	-1.124375	-10.819375
-25.375999	7.625000	1005.645996	-0.113750	0.393750	-0.682500
14.335000	9.821000	988.566040	-1.334375	2.165625	6.951875
127.429001	45.567001	1005.402039	-0.280000	0.910000	9.642500
74.359001	18.971001	1004.548035	2.712500	-2.310000	0.875000
2.501000	9.211000	995.093018	1.754375	-1.159375	-5.954375
25.193001	18.483000	1003.145020	0.476875	-0.083125	0.476875
32.269001	16.836000	1005.036011	0.135625	1.273125	3.119375
44.896000	-41.174999	998.509033	-2.546250	2.835000	11.563125
87.230003	35.136002	998.082031	1.583750	-1.618750	7.135625
40.625999	22.631001	995.885986	2.428125	-2.095625	-3.670625
4.148000	42.272999	995.885986	2.275000	-1.610000	-13.256250
15.128000	12.932000	1001.803040	1.251250	-0.577500	-5.040000
79.056000	9.882000	1008.147034	0.612500	0.927500	5.923750
69.235001	-20.496000	1003.937988	-1.478750	2.384375	8.400000
113.826004	10.858000	1002.108032	-0.231875	0.603750	13.641250
132.796997	-0.183000	1000.888000	1.715000	-1.610000	1.697500
23.790001	72.346001	1008.268982	2.458750	-2.266250	-10.893750
32.146999	6.222000	995.825012	1.588125	-1.076250	-9.520000
9.455000	27.267000	1003.267029	0.135625	0.258125	2.738750
24.766001	-53.558002	1006.195007	0.306250	1.986250	10.718750
149.084000	-57.340000	1008.085999	-0.297500	1.076250	23.008125
147.863998	-1.037000	1002.473999	0.682500	-0.577500	9.699375
18.666000	61.732002	998.204041	2.047500	-1.583750	-4.764375
42.517002	11.102000	1002.169006	1.710625	-1.150625	-5.306875
11.712000	26.596001	1000.765991	0.940625	-0.336875	-0.616875
81.923004	-55.388000	1004.609009	0.389375	1.128750	4.886875
89.974998	-17.995001	993.994995	0.144375	0.713125	7.809375
80.093002	15.555000	1000.460999	0.634375	-0.201250	1.295000
40.077000	33.549999	995.093018	2.082500	-1.312500	-6.317500
11.224000	14.762000	999.484985	1.876875	-1.684375	-11.738125
35.075001	13.786000	1003.389038	0.813750	-0.717500	-3.924375
84.973000	-22.509001	1013.880981	-0.463750	1.312500	2.633750
97.356003	-3.477000	1000.583008	-0.306250	1.299375	2.712500
66.856003	2.745000	1001.376038	0.599375	0.153125	1.960000
65.391998	28.548000	1000.278015	1.561875	-0.945000	0.507500
69.600998	7.686000	1004.487000	2.187500	-1.649375	-6.951875
46.177002	8.418000	1006.500000	1.680000	-1.334375	-3.963750
-47.580002	98.820000	992.104004	1.351875	-0.411250	1.356250
81.923004	-4.697000	1006.134033	0.494375	1.093750	1.483125
57.522999	21.716000	999.606995	0.551250	0.498750	-0.140000
53.680000	17.080000	1006.072998	0.345625	-0.026250	-1.780625
42.028999	13.176001	1000.095032	0.931875	-0.371875	-2.310000
55.021999	18.726999	1001.376038	0.988750	-0.091875	-1.505000
52.216000	11.773000	1002.962036	1.557500	-0.332500	-1.128750
46.604000	18.849001	1004.669983	1.605625	-0.770000	-0.988750
43.431999	15.006001	1018.578003	1.474375	-0.813750	-0.966875
51.423000	20.069000	1002.718018	1.382500	-0.739375	-1.133125
52.094002	17.934000	1000.643982	0.918750	-0.310625	-1.010625
55.570999	16.226000	998.570007	1.028125	-0.188125	-0.988750
50.325001	18.300001	1002.778992	0.704375	-0.109375	-1.041250
54.961002	11.529000	1001.986023	1.001875	-0.253750	-1.093750
50.751999	15.433001	1000.278015	0.717500	-0.179375	-0.870625
51.850002	15.006001	1000.156006	0.603750	-0.087500	-0.857500
49.288002	14.518001	1000.278015	0.612500	-0.074375	-1.015000
52.277000	15.006001	1002.291016	0.905625	-0.223125	-1.050000
54.411999	13.298000	1000.522034	0.818125	-0.258125	-0.831250
53.313999	17.263000	1003.267029	0.651875	-0.183750	-0.958125
51.972000	13.908000	1001.132019	0.800625	-0.109375	-0.971250
53.313999	16.531000	1003.389038	0.800625	-0.214375	-0.940625
51.972000	16.592001	1001.497986	0.918750	-0.214375	-0.940625
51.972000	16.592001	999.424011	1.041250	-0.245000	-0.848750
52.704002	19.459000	999.424011	0.958125	-0.122500	-1.036875
52.826000	16.714001	1001.376038	1.155000	-0.280000	-0.901250
48.556000	15.372000	1003.450012	1.102500	-0.227500	-1.010625
49.532001	17.873001	999.911987	1.071875	-0.266875	-1.032500
51.728001	14.640000	999.911987	1.050000	-0.249375	-0.844375
50.630001	17.385000	1003.389038	0.857500	-0.205625	-0.988750
57.035000	17.568001	1000.156006	1.001875	-0.240625	-0.997500
53.558002	15.494000	998.936035	1.015000	-0.157500	-1.010625
54.046001	15.372000	1001.924988	0.656250	-0.013125	-0.984375
51.362000	17.202000	1001.742004	0.555625	-0.157500	-0.905625
47.336002	16.348000	1002.962036	0.813750	-0.341250	-0.918750
49.959000	16.104000	1007.049011	0.993125	-0.288750	-0.940625
50.264000	17.446001	999.241028	0.888125	-0.280000	-0.892500
54.595001	16.592001	999.424011	0.966875	-0.293125	-0.962500
55.754002	12.810000	1002.535034	0.866250	-0.026250	-0.901250
53.924000	10.370000	1002.473999	0.993125	-0.148750	-0.918750
52.948002	17.019001	1006.072998	0.896875	-0.113750	-0.984375
55.937000	17.812000	1004.669983	0.870625	0.126875	-1.015000
52.582001	11.163000	1001.376038	1.133125	-0.433125	-1.063125
53.558002	15.433001	1001.132019	0.822500	-0.293125	-0.993125
56.547001	16.958000	996.862000	0.717500	-0.083125	-1.045625
48.007000	13.054000	1003.389038	0.848750	-0.245000	-0.945000
53.862999	18.483000	998.936035	0.931875	-0.288750	-1.006250
54.656002	15.616000	999.179993	0.656250	-0.052500	-1.019375
54.167999	17.446001	1000.765991	0.787500	-0.157500	-0.923125
52.704002	13.908000	1001.010010	0.822500	-0.284375	-1.019375
50.630001	10.980000	1002.596008	1.176875	-0.336875	-0.975625
51.240002	14.213000	1002.108032	0.791875	-0.148750	-0.958125
53.618999	15.006001	1001.864014	1.067500	-0.245000	-1.006250
50.264000	19.337000	1007.536987	0.888125	-0.113750	-0.980000
52.887001	12.871000	1005.158020	0.918750	-0.371875	-1.015000
52.459999	12.322001	1001.254028	1.071875	-0.205625	-0.958125
50.874001	16.653000	1002.962036	0.774375	-0.118125	-0.853125
54.473000	13.664001	1004.548035	0.638750	-0.008750	-0.975625
52.459999	15.860001	1001.742004	0.988750	0.262500	-0.931875
54.411999	18.849001	1002.718018	0.778750	0.065625	-0.918750
50.874001	14.396000	999.302002	0.765625	-0.201250	-1.019375
51.240002	16.775000	997.960022	0.879375	-0.100625	-0.958125
50.751999	14.396000	1000.460999	0.665000	-0.192500	-0.931875
52.216000	16.896999	997.228027	0.643125	-0.223125	-0.971250
51.362000	16.714001	1002.656982	0.774375	-0.175000	-0.975625
50.386002	16.958000	1003.572021	0.805000	-0.157500	-0.962500
52.582001	19.947001	1000.400024	0.892500	-0.144375	-0.914375
53.680000	19.886000	1002.840027	0.914375	-0.266875	-0.975625
49.288002	17.080000	1004.059998	0.721875	-0.245000	-0.936250
50.630001	16.836000	1002.962036	0.752500	-0.157500	-1.045625
50.630001	16.836000	999.057983	0.678125	-0.056875	-1.124375
55.083000	16.836000	1001.681030	0.818125	-0.245000	-0.971250
50.996002	14.152000	1002.108032	0.940625	-0.398125	-0.980000
53.618999	21.289000	1001.010010	0.520625	-0.122500	-0.993125
54.290001	18.666000	1000.765991	0.682500	0.013125	-1.041250
50.264000	18.544001	1000.278015	0.770000	-0.231875	-1.041250
51.118000	15.860001	1004.975037	0.770000	-0.153125	-0.997500
49.653999	19.093000	995.825012	0.831250	-0.249375	-1.063125
47.824001	14.640000	1001.681030	0.818125	-0.188125	-1.050000
49.166000	14.396000	1001.254028	0.796250	-0.175000	-1.023750
50.630001	16.409000	1004.609009	0.896875	-0.096250	-0.962500
51.728001	19.032000	999.363037	0.809375	-0.074375	-0.910000
50.142002	16.348000	1001.315002	0.857500	-0.166250	-0.840000
50.386002	15.982000	1001.132019	0.756875	-0.205625	-0.914375
51.605999	15.982000	999.424011	0.800625	-0.170625	-0.927500
48.068001	17.323999	1003.145020	0.844375	-0.100625	-1.028125
49.043999	15.738000	1003.205994	0.730625	-0.105000	-0.980000
47.702000	12.810000	1001.376038	0.805000	-0.240625	-1.032500
51.545002	17.629000	998.692017	0.726250	-0.210000	-1.015000
51.362000	21.289000	1003.023010	1.071875	-0.214375	-0.966875
50.874001	18.910000	1004.059998	0.980000	-0.131250	-0.953750
52.338001	18.666000	999.668030	0.971250	-0.135625	-0.905625
48.434002	15.372000	1000.400024	0.730625	-0.052500	-0.962500
53.131001	20.313000	1000.643982	0.630000	-0.148750	-1.015000
50.507999	14.823000	1001.254028	0.739375	-0.109375	-0.940625
51.850002	15.738000	1002.473999	0.765625	-0.083125	-0.879375
52.216000	20.069000	1005.036011	0.927500	-0.157500	-0.953750
46.177002	18.056000	1001.619995	0.783125	-0.113750	-0.949375
53.618999	21.045000	999.668030	0.835625	-0.192500	-0.980000
48.922001	15.067000	1005.707031	0.931875	-0.166250	-0.940625
50.386002	17.750999	1002.962036	0.756875	-0.271250	-0.988750
48.922001	16.592001	1005.158020	0.866250	-0.105000	-0.936250
51.423000	14.274000	1001.986023	0.918750	-0.245000	-1.071875
50.630001	17.750999	1001.132019	0.835625	-0.266875	-0.958125
55.083000	15.006001	1002.108032	0.695625	-0.105000	-0.997500
51.118000	14.884000	998.570007	0.752500	-0.091875	-1.045625
52.216000	16.348000	999.911987	1.093750	-0.153125	-1.058750
56.669003	17.446001	1000.400024	0.853125	-0.122500	-1.089375
52.459999	18.056000	1001.254028	0.892500	-0.297500	-1.023750
52.582001	19.520000	999.911987	0.918750	-0.065625	-0.844375
53.680000	14.335000	1000.400024	0.717500	-0.153125	-0.940625
52.094002	20.191000	1002.108032	0.896875	-0.262500	-1.089375
51.728001	13.725000	1001.254028	0.984375	-0.354375	-0.966875
53.558002	19.580999	1005.585022	0.603750	-0.021875	-0.866250
53.070000	14.762000	998.997009	1.067500	-0.091875	-0.901250
49.288002	13.908000	1002.413025	0.809375	-0.183750	-0.949375
53.375000	18.726999	999.424011	0.840000	-0.231875	-0.980000
53.802002	18.056000	1000.400024	0.822500	-0.240625	-0.975625
48.129002	16.104000	1006.804993	0.870625	-0.201250	-0.892500
52.154999	18.726999	1000.949036	0.765625	-0.113750	-0.896875
50.996002	15.616000	1001.010010	0.765625	-0.126875	-0.945000
48.190002	14.518001	1000.765991	0.708750	-0.126875	-0.945000
48.190002	14.518001	1003.877014	0.643125	-0.113750	-0.914375
52.887001	15.616000	1003.877014	0.940625	-0.293125	-0.962500
56.303001	19.703001	1001.864014	0.896875	-0.179375	-0.980000
52.826000	16.836000	1003.205994	0.914375	-0.336875	-1.041250
49.897999	14.640000	1001.864014	0.678125	-0.201250	-0.966875
57.157001	14.762000	1000.522034	0.774375	-0.135625	-0.971250
49.593002	9.577000	1003.999023	0.905625	-0.231875	-0.914375
53.008999	16.165001	1003.937988	0.525000	-0.074375	-0.918750
52.826000	16.714001	998.447998	0.875000	-0.148750	-0.927500
