A_X[mg]	A_Y[mg]	A_Z[mg]	G_X[dps]	G_Y[dps]	G_Z[dps]	
64.660004	97.722000	996.617981	1.063125	-0.227500	-0.888125
20.007999	16.896999	1078.175049	10.876250	9.502500	22.798124
34.526001	-62.220001	935.007996	-16.436874	-4.917500	28.170626
-48.434002	-7.503000	1049.016968	-11.585000	-4.361875	23.393126
34.709000	59.963001	1011.075012	-4.361875	9.384375	17.451876
32.939999	90.524002	965.264038	-19.801250	-5.376875	27.273750
-66.184998	63.379002	972.767029	-10.631250	-5.197500	29.561874
110.348999	81.679001	1052.005981	-1.741250	-0.284375	32.208752
-30.622000	96.746002	1050.541992	-2.187500	-2.218125	36.369373
-24.705000	94.428001	1025.958984	15.570625	4.563125	30.056250
27.755001	123.220001	1056.520020	20.216875	7.131250	19.608749
-53.313999	193.309006	1081.468994	20.947500	10.346875	14.651875
14.701000	133.223999	1023.885010	29.474375	15.426250	6.278125
-43.980999	150.669998	942.694031	25.379375	13.895000	6.046250
-32.330002	157.074997	1008.635010	28.013124	6.728750	11.186875
-2.074000	178.669006	950.807007	34.470627	2.148125	2.380000
-52.704002	270.230011	980.392029	19.643749	5.053125	6.313125
20.130001	254.492004	1022.604004	-6.098750	-11.208750	13.807500
-8.784000	276.147003	902.739014	-23.830626	-17.403749	9.235625
-56.852001	311.404999	924.088989	-21.796249	-8.198750	14.433125
2.806000	293.653992	954.283997	-4.742500	-8.605625	16.292500
-40.320999	351.726013	934.398010	10.080000	0.196875	9.288125
-14.274000	403.636993	967.338013	11.825625	4.825625	5.600000
-33.549999	426.572998	937.447998	6.475000	7.052500	3.346875
-45.323002	408.089996	974.596985	-10.941875	1.430625	1.461250
42.151001	360.510010	1009.976990	-27.501249	3.338125	-8.885625
-43.249001	326.716003	956.785034	-31.500000	7.385000	-15.767500
4.636000	259.067017	1010.465027	-37.677502	2.428125	-22.920626
17.323999	207.095001	976.854004	-37.677502	2.428125	-24.342501
17.323999	177.632004	1010.221008	-29.054375	-3.373125	-24.342501
-33.793999	177.632004	1010.221008	-30.086876	-9.170000	-23.410625
13.542000	21.106001	936.044983	-25.628750	-18.322500	-25.191250
56.608002	35.746002	1024.800049	-14.813750	-7.708750	-30.629375
55.144001	-25.498001	1027.911011	-4.545625	4.554375	-38.066875
105.224998	-60.146000	1011.380005	-5.368125	0.424375	-39.641876
-6.954000	-10.187000	1003.510986	0.691250	1.106875	-37.244373
86.863998	15.433001	1065.426025	1.903125	4.501875	-35.595001
-24.156000	-85.095001	999.546021	5.092500	-13.361250	-24.036249
-30.683001	-118.950005	1040.964966	31.478125	-7.424375	-18.278749
57.950001	-32.757000	1042.978027	45.622501	4.235000	-24.941875
-48.799999	-67.832001	934.276001	41.811874	5.320000	-22.120001
16.042999	-24.278000	935.130005	29.920626	-1.316875	-20.562500
18.300001	-76.799004	953.247009	3.666250	-11.615625	-13.501250
-69.845001	-42.272999	971.424988	-30.432501	-15.911875	-3.871875
14.945000	-132.858002	940.986023	-28.358749	-12.683125	-6.072500
28.792000	-112.789001	1023.518982	-22.439375	-15.019375	-1.496250
-23.302000	-134.382996	947.695984	-14.818125	-15.373750	-5.779375
52.948002	-150.914001	1049.626953	1.106875	0.074375	-10.119375
30.073000	-127.794998	1090.253052	3.193750	-3.915625	-2.817500
-21.106001	-191.906006	1011.624023	15.693125	1.618750	2.651250
39.040001	-208.132004	1086.287964	28.936251	13.103125	1.080625
-19.580999	-214.537003	1059.875000	20.969376	10.696875	-1.054375
5.551000	-272.364990	961.421021	5.376875	5.092500	-0.708750
-25.986000	-193.248001	1023.945984	1.185625	3.220000	-7.319375
-34.465000	-166.895996	992.470032	-11.414375	9.804375	-3.233125
112.667000	-246.318008	947.940002	-18.816875	2.826250	3.320625
29.463001	-107.970001	1008.940002	5.390000	11.392500	7.800625
-27.632999	-64.171997	1007.842041	20.068125	23.603125	16.992500
-15.738000	-21.106001	917.867004	14.253750	10.920000	23.756250
-103.395004	105.164001	1072.868042	13.230000	12.849375	23.502501
5.856000	-15.921000	1063.046997	-13.623750	12.075000	29.820000
34.160000	1.464000	927.260986	-30.148125	-13.230000	35.341251
-43.675999	38.857002	990.273987	-10.508750	1.211875	32.340000
94.062004	12.505000	979.233032	-14.551250	-6.304375	39.173752
-3.782000	57.340000	973.377014	0.091875	-10.981250	38.898125
-18.300001	34.831001	1003.450012	32.545624	15.308125	26.420626
75.152000	127.124001	1017.723999	18.003124	0.109375	26.551874
-58.376999	160.307999	1022.299011	20.636875	-3.731875	26.403126
-16.836000	151.828995	939.522034	38.189377	13.956250	15.207500
-59.963001	262.726990	1035.841064	28.984375	7.170625	11.939375
8.723001	232.654007	1019.919983	29.084999	5.591250	10.014375
15.799000	254.186996	1011.684998	30.183125	13.733125	3.631250
-47.458000	310.550995	951.234009	23.489374	15.636250	7.393750
1.586000	225.029007	943.853027	22.806875	-2.765000	20.155624
21.777000	295.666992	994.361023	18.497499	-9.003750	17.316250
-72.711998	292.556000	1008.452026	14.730625	3.609375	7.975625
-70.577003	315.431000	925.796997	8.474375	-4.130000	4.904375
-62.281002	313.417999	1019.554016	-2.996875	-5.823125	-1.089375
-19.642000	331.535004	978.257019	-13.711250	4.602500	-7.336875
-48.799999	362.096008	937.875000	-21.752501	2.931250	-12.215000
-47.945999	415.226990	958.981018	-26.879999	0.966875	-9.528750
-21.228001	398.940002	939.522034	-32.016251	-4.707500	-0.971250
-77.897003	312.136993	884.317017	-32.370625	-1.995000	3.500000
-49.897999	297.679993	961.848022	-30.502501	-1.671250	0.953750
4.087000	261.567993	971.303040	-24.727501	0.778750	-7.608125
-15.494000	205.997009	957.578003	-20.103125	9.550625	-17.381874
-18.788000	250.832001	1027.911011	-23.944374	9.143750	-19.551874
21.289000	284.687012	942.145020	-26.748751	12.578125	-10.753750
-96.684998	170.251007	959.041992	-24.994375	13.081250	-16.874374
-143.960007	155.671997	1026.812988	-39.217499	21.551250	-34.641251
-63.928001	62.952000	1043.709961	-43.841873	-8.098125	-26.140625
-111.874001	-43.431999	1012.721985	-17.530624	-17.740625	-29.898750
-44.957001	-50.935001	1037.182983	6.838125	-10.871875	-42.560001
51.667000	0.183000	1003.328003	24.290001	11.130000	-46.633125
-4.697000	-64.781998	945.561035	29.334375	-4.930625	-42.078751
-0.793000	122.000000	1112.640015	36.723751	-3.036250	-42.271252
-40.931000	-0.854000	1001.742004	33.285000	-0.249375	-36.150623
-69.112999	22.264999	945.195007	22.675625	-5.096875	-31.766874
-39.650002	21.228001	1012.783020	13.116250	-16.489374	-26.888750
-12.810000	-117.363998	913.353027	14.393750	-21.625626	-25.738125
-56.547001	22.691999	989.176025	9.703750	-21.861876	-24.565624
53.680000	-33.977001	970.754028	-13.886250	-28.231874	-18.655001
61.427002	-136.701004	981.367981	-19.928125	-27.877501	-13.356875
57.096001	-75.762001	1097.084961	-15.133125	-8.295000	-15.675625
86.253998	-144.753006	976.549011	-1.750000	-18.961250	-13.549375
30.073000	-110.715004	1054.446045	11.808125	-12.355000	-18.147499
109.312004	-64.050003	1047.552979	5.175625	-2.130625	-17.618126
-40.443001	-99.064003	883.218994	12.560625	-0.472500	-17.403749
97.722000	-132.369995	1009.671997	10.110625	3.027500	-7.564375
22.264999	-125.233002	1003.755005	3.521875	-0.385000	-0.459375
49.043999	-190.320007	1068.659058	-0.048125	2.533125	0.411250
76.860001	-252.173996	1068.354004	-5.263125	1.085000	2.533125
-31.598000	-254.858002	1035.414062	-6.584375	3.705625	1.106875
-7.503000	-285.480011	1015.772034	-10.023125	3.556875	1.675625
47.396999	-245.403000	1050.237061	-0.577500	4.808125	-1.526875
11.346000	-244.732010	1010.221008	7.481250	14.525000	0.831250
65.453003	-226.005005	1012.356018	9.708125	14.021875	18.108126
57.645000	-171.104996	1003.510986	22.942499	16.922501	26.442499
8.418000	-108.214005	968.679993	29.946875	25.331249	30.638124
-43.188000	-18.300001	980.514038	12.893125	19.578125	35.708752
-14.762000	41.114002	1001.192993	1.330000	12.499375	36.618752
7.381000	50.691002	988.505005	-15.216250	4.698750	40.271873
39.040001	-0.366000	1042.916992	-45.080002	-17.727501	45.132500
99.552002	17.323999	964.410034	-31.933125	-4.156250	47.188751
-24.888000	-12.932000	997.471985	-10.653125	6.496875	38.583126
18.056000	72.406998	1043.832031	-18.851875	-4.987500	37.743126
23.973000	71.980003	956.541016	-2.590000	-4.803750	36.793751
-25.010000	13.847000	890.966003	29.448126	15.015000	25.611250
70.515999	149.084000	1099.281006	47.521252	20.098749	20.991249
-31.171000	181.779999	960.018005	42.896873	15.868125	23.620625
-64.171997	179.706009	1009.122986	28.503124	-0.818125	24.491249
-16.104000	304.877991	1064.389038	11.305000	-1.990625	12.486250
-30.500000	263.337006	945.682983	-14.201250	-8.859375	0.078750
-7.625000	306.463989	977.342041	-30.336250	-5.761875	1.728125
21.472000	201.238998	1015.467041	-35.800625	-11.926250	6.995625
22.570000	82.289001	986.919006	-34.369999	-7.918750	10.591875
20.130001	85.034004	1003.816040	-23.100000	-7.196875	4.396875
-54.595001	67.344002	961.421021	-10.998750	-2.918125	-2.813125
10.553000	83.570000	1011.075012	-6.991250	-4.239375	-8.229375
-57.767002	233.386002	955.687012	-8.894375	-11.847500	-9.003750
-40.625999	335.317017	1043.343994	-5.166875	1.553125	-9.371250
28.609001	180.316010	993.202026	-5.166875	1.553125	3.167500
28.609001	192.760010	995.398010	0.778750	-3.473750	3.167500
-76.067001	192.760010	995.398010	6.444375	-5.005000	4.445000
-25.925001	247.354996	1128.682983	16.454374	2.086875	-4.060000
30.988001	246.561996	1084.336060	23.646875	11.799375	-14.568750
17.934000	257.420013	1006.988037	17.010000	18.786249	-25.073126
116.205002	226.432007	964.958984	2.327500	11.838750	-26.556250
-71.858002	229.298996	964.776001	-4.278750	-0.420000	-27.724375
-3.477000	115.412003	981.856018	-4.895625	-3.215625	-35.415627
-19.886000	139.018997	953.125000	-3.255000	-5.971875	-37.231251
35.196999	74.298004	1040.964966	0.651875	-10.303125	-34.033127
122.427002	3.477000	958.309998	18.790625	-8.155000	-34.015625
-7.015000	67.771004	987.346008	26.127501	5.193125	-33.643749
158.112000	15.189000	1031.754028	17.832500	-1.981875	-32.961250
26.535000	-7.015000	946.415039	16.830626	-8.561875	-26.000626
-21.716000	82.472000	1065.791992	4.283125	-10.311875	-29.111250
71.248001	-55.875999	974.658020	-17.745001	-16.454374	-36.378124
45.323002	-55.998001	949.465027	-41.702499	-13.085625	-32.086250
24.888000	-155.123001	1022.238037	-53.939377	-16.463125	-28.590626
116.875999	-259.433014	849.851990	-41.720001	-28.498751	-6.558125
32.879002	-254.065002	996.191040	-9.038750	-17.346874	-8.592500
115.717003	-215.635010	1029.375000	4.558750	-2.034375	-5.468750
-11.956000	-234.972000	876.082031	8.518125	-11.532500	3.933125
-31.720001	-175.070007	1046.760010	9.336250	9.865625	-9.458750
99.002998	-150.121002	1031.021973	-0.315000	-1.995000	0.446250
29.829000	-227.164001	949.892029	9.520000	-7.511875	8.238125
173.789001	-270.901001	1101.660034	28.542500	6.562500	2.804375
38.735001	-305.000000	1071.281982	46.935001	12.818750	-1.006250
-83.692001	-249.307007	1010.892029	29.579374	12.394375	-4.729375
31.049000	-245.037003	1038.098022	6.549375	3.241875	-5.923750
-15.982000	-176.229004	1053.469971	4.143125	0.988750	-14.450625
100.345001	-241.194000	1003.572021	-2.642500	4.506250	-12.451250
125.477005	-250.283005	1030.167969	-16.454374	-3.259375	-1.898750
21.167000	-139.811996	978.317993	1.054375	19.188749	6.335000
37.820000	-191.662003	935.312988	0.485625	19.805626	19.149376
-25.132000	-76.067001	960.322998	8.833125	21.857500	26.591249
-35.441002	-117.058998	967.277039	25.760000	28.301874	20.461876
-55.388000	185.013000	1102.026001	-11.475625	-0.105000	11.248125
15.189000	138.470001	1031.815063	-25.160625	-7.350000	19.753124
-5.246000	91.744003	912.010986	-5.512500	-8.960000	33.061874
37.332001	137.615997	966.423035	16.948750	-10.158750	47.656876
107.055000	39.771999	992.592041	40.626251	-3.780000	51.345001
83.387001	118.828003	1039.562012	49.726250	3.517500	37.856876
25.071001	206.240997	1001.315002	42.271252	10.338125	30.520000
-9.028000	216.794006	968.924011	36.063126	17.049376	22.898750
-44.164001	350.506012	1050.359009	3.241875	10.276875	24.123751
53.008999	242.414001	996.191040	-34.142502	-3.430000	26.643749
34.892002	170.373001	977.830017	-42.931873	-8.071875	23.318750
12.383000	185.440002	1047.065063	-38.220001	-2.480625	32.926250
46.542999	89.792000	1026.447021	-26.254375	-8.203125	34.720001
-12.932000	137.250000	1037.488037	-6.693750	8.995000	16.371250
-59.902000	143.167007	991.494019	-8.207500	13.418125	10.381875
-28.670000	151.828995	981.551025	-10.928750	-0.682500	10.710000
-44.042000	160.369003	990.457031	-8.575000	3.465000	2.861250
-60.633999	134.626999	974.414001	-17.867500	-3.106250	2.441250
23.118999	65.453003	979.355042	-19.893126	-9.235625	-4.335625
135.115005	200.445999	891.270996	-27.181875	-2.817500	-17.885000
18.483000	93.695999	1015.040039	-31.023125	-8.058750	-20.930000
-47.580002	147.315002	1020.957031	-15.207500	-1.653750	-14.813750
-66.734001	127.246002	994.971008	-4.676875	1.106875	-4.274375
-47.640999	39.711002	995.276001	7.472500	-0.796250	6.790000
-3.904000	83.204002	1056.885986	17.657499	2.743125	3.810625
-8.174000	92.049004	1005.218994	29.448126	6.890625	0.853125
43.615002	129.746994	1001.742004	28.214375	9.576875	0.446250
-5.246000	102.297005	956.723999	9.480625	3.692500	-1.933750
-16.653000	100.528000	1002.230042	-6.759375	-1.850625	-3.915625
-9.699000	55.632000	1005.950989	-7.542500	-6.195000	-8.106875
16.714001	62.769001	1031.998047	-8.680000	-4.462500	-15.325625
21.410999	26.718000	995.215027	-1.995000	-0.301875	-18.908751
16.042999	1.403000	991.250000	8.308125	-2.476250	-22.610001
-10.553000	0.122000	1008.574036	2.572500	-0.030625	-25.751249
31.232000	-47.458000	995.153992	0.494375	-5.582500	-25.331249
5.917000	-9.577000	1042.489990	3.893750	-9.970625	-23.515625
5.978000	-34.098999	1049.870972	6.531875	-4.081875	-23.611876
22.570000	-39.833000	982.527039	21.192499	0.083125	-24.469376
16.775000	-16.531000	992.165039	32.567501	6.238750	-20.930000
17.446001	2.379000	997.777039	37.310001	12.862500	-22.093750
28.304001	37.758999	990.700989	32.029373	9.301250	-20.881874
52.033001	149.876999	1020.530029	15.015000	1.487500	-16.817499
12.505000	85.643997	962.763000	-3.001250	-5.490625	-9.922500
19.703001	33.367001	1003.877014	-7.385000	-5.228125	-8.990625
-8.479000	101.931000	1034.803955	-13.453125	-3.189375	-13.785625
3.294000	35.380001	962.518982	-9.988125	0.214375	-14.551250
-17.323999	43.126999	1010.403992	-12.416250	-7.205625	-14.074375
-24.339001	49.837002	1002.778992	-7.962500	2.445625	-14.660625
-81.556999	1.586000	998.936035	0.026250	-2.283750	-11.523750
69.784004	11.834001	1027.362061	9.642500	-8.330000	-6.798750
-14.213000	94.855003	1064.510986	6.037500	-1.435000	-6.798750
-8.357000	20.007999	968.436035	-9.541875	-9.681875	-8.885625
65.026001	0.122000	968.436035	-16.397499	-10.154375	-6.746250
-38.491001	24.705000	1022.299011	-21.433125	-5.131875	-12.661250
56.852001	-68.930000	924.150024	-16.935625	1.351875	-16.152500
30.195000	-53.436001	1014.307983	1.255625	-3.360000	-14.223125
3.599000	-78.140999	1028.582031	6.851250	-3.683750	-18.305000
60.024002	-83.631004	985.577026	12.013750	-7.647500	-10.801875
-26.169001	-107.787003	1043.709961	23.590000	-5.355000	-8.216250
30.195000	-124.074005	980.270020	27.768126	-2.511250	-4.939375
33.244999	-114.985001	1049.749023	27.619375	0.822500	-0.030625
9.577000	-136.335007	1047.125977	9.218125	-0.840000	2.213750
53.192001	-189.527008	964.531982	-4.160625	-5.171250	3.933125
6.832000	-166.102997	1049.139038	-13.868750	-0.315000	-1.054375
52.216000	-172.691010	991.677002	-26.591249	-0.389375	-2.401875
33.306000	-134.871002	1012.539001	-32.038124	-6.982500	4.305000
30.378000	-122.854004	984.845032	-23.520000	-1.513750	4.523750
9.455000	-45.628002	1011.867981	-1.881250	2.734375	11.060000
25.498001	-73.626999	1024.921997	10.675000	-2.467500	19.556250
-7.564000	17.690001	1036.268066	9.415000	5.477500	14.323750
45.201000	30.988001	1001.619995	10.959375	9.467500	9.673125
46.970001	-10.797000	989.114990	10.959375	1.150625	14.402500
89.792000	25.925001	1058.289062	12.105625	1.150625	14.402500
89.792000	25.925001	977.952026	17.093124	-1.281875	22.054375
44.285999	33.244999	977.952026	32.221874	8.636250	21.293125
64.721001	23.485001	978.928040	31.596251	1.929375	26.219376
71.918999	71.003998	971.059021	29.176874	-0.581875	38.421249
16.775000	79.483002	1006.195007	37.563751	4.917500	53.112499
-41.418999	198.067001	946.842041	22.653749	-1.824375	41.090000
-12.444000	297.131012	976.609985	1.233750	0.818125	30.060625
43.980999	252.052002	963.983032	-5.757500	-3.294375	27.825001
58.804001	197.212997	1004.853027	-11.935000	-10.828125	30.834999
97.051003	163.479996	1022.116028	-17.766874	-8.001875	28.000000
91.439003	120.719002	994.361023	-26.486250	-13.903750	22.728125
150.059998	102.601997	1014.613037	-31.045000	-9.778125	14.805000
103.944000	101.870003	1021.079041	-32.711876	-0.266875	6.650000
95.953003	73.749001	993.872986	-29.439375	-2.940000	6.667500
77.835999	165.554001	1055.421997	-18.567499	6.461875	0.568750
13.420000	132.369995	1001.803040	-21.161875	15.141875	-1.198750
69.112999	147.863998	1029.070068	-35.844376	-3.701250	4.983125
83.936005	143.593994	1010.038025	-25.165001	-1.631875	6.076875
52.704002	189.710007	973.621033	1.242500	7.231875	6.531875
67.344002	263.398010	991.921021	12.687500	7.262500	9.034375
58.376999	274.865997	973.804016	14.726250	2.721250	8.754375
58.194000	362.828003	952.880981	24.609375	18.449375	-7.310625
141.703003	373.929993	976.793030	9.861250	6.776875	-20.623751
0.610000	328.545990	916.952026	4.322500	-12.840625	-28.065624
98.271004	228.322998	1058.349976	19.783751	-3.578750	-46.510624
109.678001	135.542007	1082.201050	26.722500	-4.987500	-52.075626
68.502998	59.048000	1050.541992	30.279375	-20.553749	-50.413124
193.858002	81.191002	1135.759033	33.626251	3.696875	-59.307499
194.346008	11.773000	1042.978027	10.906875	5.171250	-63.805000
90.097000	20.434999	957.517029	-3.053750	2.003750	-56.052502
155.733002	47.458000	1061.644043	-0.603750	5.604375	-51.139374
70.210999	-103.028999	854.182983	-4.322500	-2.935625	-37.974998
55.632000	4.148000	1004.426025	3.399375	1.076250	-31.631250
44.103001	-45.262001	996.191040	-19.477501	0.805000	-24.561251
78.873001	-232.166000	889.867981	-54.936874	-25.016251	-9.541875
14.274000	-187.026001	1036.084961	-42.271252	-6.479375	-10.836875
101.565002	-194.772995	1068.354004	-25.475624	-3.189375	-10.959375
21.228001	-230.091995	1028.765015	1.728125	-8.986250	-12.123125
66.124001	-141.764008	1081.468994	14.708750	8.242500	-10.071250
18.422001	-208.619995	1076.284058	-0.441875	3.858750	-4.567500
97.112000	-282.368988	924.333008	-4.361875	4.287500	-0.586250
25.681000	-181.597000	982.343994	13.313125	10.578750	0.096250
-12.261000	-235.887009	969.290039	7.293125	4.821250	6.671875
-11.346000	-237.046005	954.283997	-0.529375	-3.132500	9.428125
-32.879002	-226.737000	1005.829041	-2.100000	6.090000	6.335000
21.533001	-304.511993	946.171021	-5.845000	4.729375	16.808750
112.239998	-316.894989	945.134033	7.000000	11.388125	18.873751
18.788000	-176.167999	976.000000	18.646250	16.515625	15.995000
85.583000	-176.046005	912.194031	16.568125	5.670000	20.776875
104.614998	-82.959999	954.893982	27.951876	7.975625	19.573750
47.396999	116.510002	1043.343994	21.870625	3.110625	36.736874
127.612000	-4.209000	1002.778992	15.986250	-16.034374	54.149376
-1.342000	67.282997	995.825012	25.007500	-2.865625	52.233124
-2.806000	133.529007	1097.938965	0.971250	-11.143125	48.514374
37.514999	42.456001	1062.375977	-10.920000	-12.018125	41.746250
17.202000	98.271004	1063.229980	-20.921249	4.563125	25.322500
68.502998	168.298996	1063.352051	-41.256248	-5.818750	22.885626
-5.429000	81.434998	948.611023	-13.518750	2.563750	30.625000
11.590000	105.103004	976.366028	14.643125	6.689375	36.019375
140.604996	167.994003	1057.068970	17.285625	10.154375	20.479376
111.020004	143.289001	1024.800049	7.096250	5.363750	13.457500
90.402000	221.186005	977.708008	-11.790625	-2.730000	4.353125
119.194000	297.558014	1071.404053	-19.525625	16.454374	-12.088125
64.965004	201.910004	944.890015	-43.435001	-16.065001	0.065625
42.028999	221.369003	992.226013	-46.309376	-15.207500	-9.502500
88.206001	171.531998	980.208984	-40.775002	-1.588125	-16.996876
23.546000	175.497009	1000.583008	-34.120625	-6.383125	-13.724375
25.375999	177.266006	1067.438965	-12.468750	10.718750	-16.738750
10.980000	142.740005	1041.941040	6.995625	17.622499	-14.389375
22.936001	165.615005	1027.972046	24.298750	20.461876	-19.389999
35.501999	145.546005	1019.859009	27.790001	19.442499	-34.116249
-5.673000	124.623001	1002.840027	25.042500	13.492500	-41.544998
20.618000	88.450005	993.385010	29.723749	10.871875	-52.189377
-13.908000	99.307999	1004.426025	42.971249	9.423750	-57.176876
-9.333000	103.395004	997.777039	37.743126	12.761875	-67.322502
77.653000	140.361008	1116.910034	10.136875	-4.965625	-61.079376
-45.872002	166.774002	1087.020020	1.461250	-13.820625	-48.496876
101.931000	58.804001	1050.237061	2.016875	-4.812500	-56.218750
79.726997	-43.615002	963.739014	-3.661875	1.561875	-59.758125
-8.845000	-107.482002	951.173035	-2.598750	-1.811250	-57.216251
65.026001	-92.354004	992.958008	22.780624	-6.790000	-52.893749
-9.089000	-133.772995	980.941040	52.854374	-4.812500	-36.754375
-17.507000	-42.456001	1009.306030	87.876251	1.268750	-21.459375
-12.871000	59.841000	1085.067993	75.626251	18.195625	-9.817500
-30.743999	86.863998	1040.660034	22.137501	-5.118750	19.862499
82.167000	-43.859001	964.166016	-13.177500	-21.122499	19.635000
157.867996	-17.690001	935.374023	-18.917500	-9.012500	11.147500
93.330002	-29.829000	1023.580017	-19.040001	1.723750	-9.961875
5.917000	-25.315001	1009.916016	-30.944374	5.035625	-24.998751
17.446001	-64.476997	943.548035	-33.464375	-3.088750	-22.977501
-22.021000	-83.936005	932.629028	-18.458124	-0.595000	-19.451250
0.183000	-50.874001	977.342041	-2.983750	6.545000	-13.584375
43.066002	-100.528000	985.577026	9.178750	7.113750	1.168125
-2.806000	-81.801003	1020.225037	16.515625	3.963750	13.965000
138.714005	-122.792999	1102.331055	17.233126	22.553125	14.476875
69.112999	-45.018002	1020.408020	-4.760000	14.651875	36.321251
-110.105003	-98.271004	848.265991	-20.011250	4.777500	37.331875
-25.559000	-130.906006	917.013000	-19.048750	7.516250	33.459999
10.675000	-58.438000	1009.184021	-5.411875	2.327500	30.730000
-7.930000	47.702000	994.788025	-5.411875	2.327500	30.730000
-7.930000	47.702000	924.210999	16.576876	14.262500	30.712500
-43.188000	78.690002	924.210999	16.541876	14.787500	36.994999
-64.233002	115.350998	1080.920044	10.788750	-0.319375	39.545624
-157.380005	110.898003	1031.875977	8.596875	7.166250	30.121876
68.625000	53.741001	1098.792969	-26.503750	-32.532501	-0.603750
144.936005	175.313995	1008.147034	-48.160000	-67.751251	10.998750
70.698997	0.610000	914.023987	-45.189377	-16.590000	4.361875
102.601997	239.669006	1048.346069	-46.086250	4.414375	-1.334375
37.088001	120.109001	957.760986	-37.047501	0.013125	14.638750
-39.528000	149.206009	1051.884033	-32.917500	-2.533125	19.166876
-2.013000	212.279999	1051.640015	-29.680000	-6.755000	23.152500
-37.820000	137.798996	1040.354980	-13.584375	9.559375	24.259375
-39.406002	111.325005	1062.071045	5.171250	41.068127	15.868125
-62.281002	180.376999	1087.508057	7.441875	8.776250	15.666875
-70.333000	66.856003	955.931030	8.443750	3.788750	10.705625
-45.932999	116.570999	993.872986	5.849375	0.678125	3.136875
-26.169001	182.695007	1029.984985	11.143125	3.154375	7.161875
-48.373001	169.763000	1037.792969	12.341875	3.535000	14.568750
4.087000	127.185005	993.872986	14.236250	-1.872500	23.196251
-65.819000	190.563995	907.741028	30.686251	2.454375	30.502501
-107.542999	215.025009	972.767029	37.520000	14.288750	29.723749
-71.553001	92.964005	1006.682983	26.761875	-3.591875	34.199375
-130.113007	235.520996	1047.187012	22.343124	-6.685000	27.033125
19.093000	127.368004	1042.001953	16.336250	-7.870625	21.975624
-60.633999	140.666000	990.213013	13.391875	-5.425000	19.184376
18.788000	107.970001	971.119995	-0.945000	-2.808750	15.946875
97.356003	137.738007	922.929993	-11.681250	10.338125	24.871876
30.256001	190.503006	1080.676025	-10.583125	4.808125	33.731251
-2.074000	38.003002	939.888000	-11.563125	-10.535000	28.678125
-27.511000	38.430000	939.888000	6.650000	-4.716250	21.144375
-50.081001	31.537001	1040.598999	18.475624	7.262500	8.754375
-28.609001	112.789001	1011.624023	-7.245000	-8.465625	-4.436250
37.514999	33.672001	1046.333008	-18.506250	-14.958125	-10.329375
60.817001	38.247002	1051.701050	-29.137501	-14.678125	-6.816250
56.364002	-33.244999	955.504028	-17.513124	-12.162500	-5.315625
12.871000	22.875000	1040.477051	12.481875	-2.948750	1.106875
17.507000	21.472000	1020.164001	3.473750	-17.062500	-0.708750
27.755001	20.130001	974.658020	7.673750	-2.786875	-9.458750
-19.276001	-50.081001	1003.083984	-3.990000	-1.203125	-6.886250
40.992001	-23.912001	1013.942017	-18.523750	-4.335625	-5.915000
13.847000	-88.571999	954.528015	-14.468125	0.253750	4.261250
17.507000	-122.854004	955.747986	-16.673124	-3.010000	14.743750
26.535000	-171.897995	953.186035	-18.816875	-3.648750	8.820000
81.434998	-296.338013	1008.147034	-9.288125	0.105000	15.264375
-29.768000	-229.421005	978.806030	1.645000	1.872500	9.690625
-68.381004	-236.740997	966.544983	2.305625	-0.450625	4.891250
-65.331001	-184.281006	963.190002	-1.837500	-11.357500	-7.332500
-47.580002	-153.231995	1007.354004	-3.425625	-10.793125	-12.468750
16.104000	-193.675003	1040.781982	-5.971875	-6.877500	-16.379999
19.215000	-218.074997	1007.842041	-1.106875	-8.102500	-18.851875
-41.846001	-203.130005	995.825012	23.091249	0.988750	-16.891874
122.427002	-251.686005	1007.231995	42.026249	7.901250	-15.491875
24.766001	-101.382004	1015.101013	45.858749	7.039375	-23.086876
-55.144001	-13.298000	1022.665039	44.725624	13.238750	-13.737500
104.859001	-75.396004	1038.829956	22.688749	-6.195000	-1.688750
53.436001	-15.982000	1043.039062	17.530624	-1.391250	-7.428750
93.513000	-105.712997	873.031982	17.985624	6.286875	-3.552500
43.554001	37.758999	865.285034	18.278749	-10.290000	0.643125
83.875000	138.775009	975.268005	57.268749	19.508125	1.246875
114.680000	135.542007	935.434998	41.072498	23.931250	10.478125
-138.775009	334.157990	1021.322998	17.276875	0.901250	6.422500
13.664001	419.009003	1150.765015	12.232500	24.924376	-1.045625
29.280001	422.303009	1149.484009	-36.631874	-1.378125	4.956875
-96.746002	277.855011	950.380005	-64.312500	-20.356874	7.568750
62.037003	210.206009	927.871033	-50.063126	18.195625	-2.139375
163.053009	185.867004	1081.530029	-61.687500	1.881250	7.188125
-31.293001	47.824001	928.054016	-29.426250	-7.398125	11.427500
68.990997	25.681000	943.914001	-2.235625	2.870000	3.263750
11.651000	110.715004	1010.465027	-10.106250	-5.831875	2.756250
10.004000	100.345001	972.523010	-19.635000	-12.473125	-6.912500
107.055000	161.772003	1029.680054	-29.067499	-6.794375	-11.830000
70.210999	124.257004	1023.275024	-23.257500	-16.323126	-4.781875
66.489998	170.434006	1014.734985	10.731875	6.116250	-6.636875
54.473000	146.583008	967.582031	25.340000	10.093125	3.163125
-49.227001	224.113998	974.231018	25.326876	2.323125	8.089375
27.694000	236.436005	1003.450012	22.216249	9.152500	4.790625
35.563000	214.903000	978.744995	4.348750	1.588125	5.958750
9.455000	238.326996	1005.036011	-3.198125	-3.718750	1.312500
82.349998	232.959000	1050.541992	-6.251875	3.390625	-5.582500
43.737000	191.966995	1001.376038	-19.809999	6.934375	-8.238125
2.379000	159.453995	1062.619995	-34.164375	1.023750	-20.619375
128.343994	88.999001	984.418030	-36.933750	-13.768125	-32.121250
55.449001	-23.058001	903.044006	-16.747499	-2.073750	-37.183125
126.209000	35.624001	1037.244019	-1.391250	2.016875	-45.784374
9.089000	17.446001	950.562988	-0.713125	-7.595000	-46.668125
55.875999	15.738000	1019.737000	9.065000	2.778125	-60.239376
126.209000	16.226000	1094.096069	4.978750	6.641250	-65.537498
30.012001	-66.856003	992.531006	5.464375	-0.131250	-60.182499
142.069000	-91.561005	1054.567993	16.384375	-5.241250	-65.686249
98.149002	-131.210999	1001.559021	25.733749	12.359375	-68.324371
73.383003	-103.334000	1051.945068	27.908125	7.555625	-61.591251
-0.183000	-50.447002	1079.212036	7.774375	-0.345625	-55.098751
93.573997	-50.996002	993.507019	-2.555000	-1.876875	-48.173126
68.747002	-94.611000	971.669006	9.463125	-5.258750	-36.330002
30.195000	-107.299004	968.924011	0.905625	1.006250	-34.864376
73.200005	-107.725998	980.514038	-7.936250	-17.635626	-17.403749
57.462002	-201.788010	956.296997	6.566875	-12.503750	-13.527500
82.899002	-193.309006	951.843994	19.858126	18.707500	-20.466249
13.359000	-171.837006	979.294006	16.799999	12.547500	-14.511875
41.358002	-195.749008	1010.160034	3.500000	-1.570625	-6.216875
44.103001	-190.503006	984.234985	-0.809375	5.228125	-2.244375
-2.684000	-174.460007	981.489990	-0.809375	5.228125	4.344375
-2.684000	-162.748001	996.007996	-10.167500	6.790000	4.344375
48.007000	-162.748001	996.007996	-20.719999	0.980000	17.233126
107.604004	-231.861008	1006.622009	-21.074375	1.312500	34.575626
25.620001	-226.615005	930.738037	-5.792500	10.587500	45.058125
70.150002	-242.658005	1034.133057	4.690000	11.423125	46.265625
111.325005	-109.983002	991.311035	-9.345000	-5.910625	68.031250
-153.110001	-21.837999	926.590027	7.091875	-8.111250	78.421875
9.943000	76.311005	1137.100952	24.298750	-9.603125	65.471878
51.850002	182.024002	1106.296021	33.661251	-8.750000	81.396873
-39.406002	161.100998	1050.359009	15.001875	-10.788750	96.149376
244.182999	-51.300999	1031.998047	-10.298750	-12.263125	90.343750
155.977005	-24.156000	978.622986	-28.113750	-34.142502	90.890625
0.366000	-50.935001	1036.024048	-14.818125	-12.048750	76.890625
152.988007	-29.585001	1036.511963	0.170625	-3.740625	47.464375
52.521000	86.193001	997.289001	9.926875	12.040000	25.659374
145.302002	116.632004	1064.999023	5.302500	13.763750	24.390625
228.079010	116.753998	989.541992	-16.423750	-3.723125	35.363125
114.009003	122.182999	1038.525024	-38.570000	-1.907500	36.881248
223.382004	85.948997	1068.109985	-52.574375	5.298125	23.388750
96.868004	34.526001	994.726990	-47.162498	2.769375	30.292500
99.674004	-0.732000	952.393005	-30.681875	-5.840625	32.900002
99.064003	54.839001	980.270020	0.625625	1.553125	19.766251
45.201000	67.466003	938.729004	19.753124	10.828125	14.004375
62.341999	103.273003	986.126038	11.694375	3.753750	13.090000
72.041000	124.500999	1032.729980	14.319375	8.220625	4.746875
59.230999	148.412994	1058.045044	7.660625	0.625625	3.710000
38.612999	123.403000	1053.469971	-1.260000	-6.650000	-2.638125
76.799004	123.342003	1074.393066	4.558750	4.733750	-20.085625
78.445999	92.598000	1015.101013	6.378750	13.842500	-37.590000
47.824001	98.514999	972.645020	5.079375	9.520000	-54.783749
119.376999	82.472000	1016.992004	6.015625	2.345000	-67.348747
84.790001	67.099998	995.947021	-14.936250	-14.577500	-75.153748
117.973999	73.016998	1083.055054	-38.285625	-12.149375	-76.614998
185.257004	-70.393997	1071.587036	-48.304375	-8.824375	-79.786873
201.544006	-148.108002	979.171997	-37.616249	-7.638750	-80.066872
204.777008	-236.497009	912.010986	-10.946250	6.234375	-89.796875
174.337997	-210.816010	1008.635010	11.029375	27.440001	-91.914375
102.297005	-246.684006	883.645996	17.031876	22.618750	-90.951874
168.421005	-172.751999	955.992004	18.768749	7.446250	-84.000000
117.120003	-175.923996	958.859009	8.855000	8.260000	-75.954376
141.337006	-156.221008	955.138000	-8.032500	3.198125	-63.380627
144.020996	-181.841003	969.778015	-7.586250	-2.174375	-56.616875
101.443001	-225.151001	936.960022	-5.464375	-1.076250	-47.048752
157.867996	-278.464996	955.199036	6.706875	-3.574375	-36.553123
97.844002	-282.917999	996.862000	25.178125	-6.597500	-37.865623
85.705002	-270.108002	956.785034	28.787500	6.418125	-36.189999
127.124001	-242.292007	885.171021	26.801250	13.444375	-28.301874
39.223000	-192.943008	1050.237061	14.424375	13.724375	-19.989374
123.403000	-253.638000	1020.773987	0.135625	2.493750	-13.286875
96.075005	-297.436005	952.393005	0.192500	-1.098125	-5.766250
110.531998	-307.256989	958.005005	7.831250	14.131250	2.257500
65.026001	-283.345001	957.212036	4.528125	6.413750	9.590000
63.928001	-262.726990	987.223999	5.416250	7.590625	14.450625
98.514999	-224.541000	987.346008	7.525000	13.680625	19.814375
-10.614000	-146.400009	974.048035	6.860000	18.589375	26.718124
99.064003	-162.992004	1028.399048	2.012500	2.047500	28.078751
166.347000	-152.378006	1001.924988	7.140000	1.421875	32.545624
128.770996	-104.188004	957.455994	17.561251	9.458750	40.398750
173.850006	-139.811996	965.934998	28.350000	12.127500	46.900002
159.453995	-58.743000	950.380005	26.691875	-3.101875	54.897499
-3.843000	44.225002	1020.225037	15.365000	-5.460000	55.212502
98.027000	62.159000	1077.992065	-1.715000	-8.421875	48.584373
100.284004	81.313004	1035.474976	-12.267500	-17.758125	50.697498
34.403999	65.636002	1006.988037	-8.723750	-9.506875	49.148750
66.246002	121.207001	1061.583008	-15.338750	-8.155000	51.331875
41.785000	100.467003	1097.084961	-15.176875	-8.745625	55.658749
52.704002	109.250999	1088.666992	0.945000	0.581875	49.686874
-7.686000	85.095001	1029.070068	11.283125	15.316875	45.605000
73.749001	118.889000	1045.052002	6.645625	13.024375	37.778126
31.293001	156.098999	1011.624023	-3.548125	12.980625	27.654375
9.089000	143.777008	943.121033	-14.853125	9.839375	20.807501
49.837002	116.448997	1028.276978	-15.465625	2.743125	14.293125
20.374001	15.433001	1002.778992	-3.955000	-5.748750	12.945625
-16.409000	102.601997	983.564026	6.654375	5.740000	-0.385000
70.089005	103.090004	990.945007	5.954375	7.363125	-3.128125
46.786999	125.843002	949.465027	-4.226250	3.093125	-6.024375
39.223000	179.401001	981.002014	-13.024375	4.751250	-9.423750
18.788000	174.337997	986.553040	-23.003750	-3.163125	-11.335625
18.300001	151.218994	969.046021	-11.974375	-5.530000	-13.273750
30.134001	202.337006	1018.639038	14.616875	6.470625	-23.187500
75.884003	260.958008	1040.110962	19.928125	11.970000	-34.825001
131.455002	138.104004	943.669983	10.609375	-4.077500	-29.872499
49.532001	212.645996	964.593018	20.903749	-12.810000	-36.041248
87.168999	225.334000	939.827026	22.881250	1.356250	-46.808125
55.754002	120.231003	947.147034	7.056875	-20.667500	-44.178749
15.433001	181.779999	1021.627991	-7.472500	-15.649375	-59.066875
165.798004	-11.407001	958.554016	-10.080000	-22.063126	-65.366875
164.212006	-64.965004	1132.464966	2.345000	-27.282499	-48.033127
80.703003	-120.109001	1137.711060	6.076875	-24.854376	-38.679375
218.136002	-210.328003	1048.895020	18.270000	-11.230625	-39.191250
13.298000	-46.421001	1129.781006	16.730000	0.091875	-22.211876
168.725998	-188.612000	947.147034	6.663125	-17.425625	-6.195000
77.104004	-70.698997	991.494019	36.662498	3.565625	9.778125
38.979000	-78.140999	1117.398071	36.662498	3.565625	18.549999
38.979000	-131.943008	962.335999	40.901875	23.078125	18.549999
136.091003	-131.943008	962.335999	43.330002	17.066875	33.814377
0.549000	-47.519001	1072.380005	43.680000	26.621876	39.545624
-13.420000	-98.576004	932.690002	25.331249	20.746250	20.492500
101.198997	-136.212997	907.009033	28.809376	14.647500	13.951875
11.285000	35.257999	966.362000	25.116875	12.775000	10.959375
48.983002	27.511000	967.825989	6.921250	4.458125	12.280625
38.491001	46.542999	971.181030	-1.846250	8.102500	10.508750
0.671000	103.516998	1003.328003	-16.861250	6.903750	2.905000
-23.118999	86.253998	968.557983	-26.389999	-2.069375	3.206875
49.105000	33.123001	1003.389038	-25.147499	-9.205000	0.520625
24.217001	36.904999	1041.453003	-11.725000	2.957500	2.506875
39.040001	-100.894005	1027.605957	-3.985625	7.818125	11.195625
39.894001	-102.113998	1017.419006	1.176875	13.291250	13.750625
30.316999	-53.802002	1019.676025	-0.848750	14.402500	18.191250
58.316002	-124.988998	956.236023	-8.697500	4.961250	29.824375
-31.781000	-6.100000	1001.254028	-0.048125	10.373125	22.146250
57.462002	9.150001	1033.218018	-0.043750	17.631250	25.869375
51.545002	-6.954000	1002.718018	-7.638750	-6.868750	32.834373
-3.599000	105.957001	1012.966003	5.713750	27.895000	15.990625
39.406002	112.911003	1015.528015	-11.536875	26.613125	23.940001
47.275002	114.314003	1022.908997	-17.521875	-2.620625	39.357498
-10.919000	158.966003	1006.377991	20.334999	22.185625	39.834373
-19.215000	145.302002	1063.839966	1.172500	19.363750	41.046249
81.313004	197.578995	1066.218994	-37.485001	2.664375	41.426876
-71.858002	222.955002	930.799011	-48.173126	2.065000	36.233749
-8.418000	140.544006	912.559998	-69.794373	0.516250	15.325625
31.903000	-49.653999	956.114014	-85.553123	-34.264999	8.758750
61.000000	0.183000	968.436035	-65.983749	-20.470625	-12.350625
38.491001	71.187004	1111.114990	-40.936874	8.032500	-21.568750
31.537001	-44.469002	1018.212036	-31.591875	-16.773750	-12.460000
-0.488000	59.414001	1040.477051	0.087500	-0.240625	-22.273125
30.256001	142.434998	1105.869019	14.039375	17.963751	-21.700001
12.688000	115.229004	1017.785034	23.848125	6.295625	-7.358750
-67.954002	111.996002	994.117004	39.112499	29.058750	0.083125
-54.778000	46.482002	981.184998	34.146873	18.974375	5.766250
20.130001	57.096001	987.041016	27.391874	-5.617500	9.060625
-35.196999	149.572006	1051.518066	23.126249	-10.570000	0.914375
8.784000	203.923004	1038.281006	21.122499	-7.581875	-6.129375
68.930000	196.237000	1007.354004	2.030000	-20.264999	-2.292500
51.972000	232.959000	976.488037	-16.778126	-33.289375	9.874375
72.651001	129.137009	1038.708008	-9.025625	-25.755625	-3.806250
100.650002	11.773000	1101.537964	14.840000	-17.303125	-33.053123
85.765999	55.388000	986.796997	23.773750	-16.690624	-51.830624
88.266998	-5.734000	1045.417969	34.930000	-13.440000	-55.453125
98.820000	28.365000	1064.876953	48.431252	5.508125	-58.979374
149.145004	23.302000	1082.018066	44.791248	9.734375	-58.353748
185.867004	-46.786999	1089.765015	14.201250	-1.732500	-46.983124
-21.655001	124.562004	1089.338013	-1.395625	1.736875	-43.413124
133.346008	-14.518001	994.421997	-2.480625	-0.336875	-34.181873
75.822998	-59.902000	996.923035	3.482500	-14.433125	-15.946875
41.602001	-75.639999	938.241028	15.544375	-6.588750	-22.356251
168.115997	-101.198997	904.630005	26.626249	9.358125	-14.402500
-45.567001	-22.448000	971.913025	28.529375	-1.859375	-2.476250
80.398003	-86.863998	1023.397034	7.726250	8.347500	-7.529375
63.195999	-88.571999	977.585999	-3.836875	-6.186250	-4.296250
-38.247002	-61.610001	962.580017	-4.077500	-8.767500	-4.808125
55.265999	-30.866001	1013.027039	-0.048125	1.531250	-4.891250
3.843000	-23.363001	989.114990	3.163125	-1.172500	2.708125
18.300001	9.516000	1018.578003	-0.463750	-1.185625	5.643750
26.291000	28.609001	1042.062988	-1.225000	6.295625	2.699375
14.823000	54.900002	990.091003	0.455000	7.770000	-0.118125
11.956000	82.959999	1025.958984	1.360625	11.357500	-5.534375
52.033001	27.389000	1005.768005	7.940625	13.466250	-2.835000
-9.882000	-78.018997	1011.197021	15.478750	12.726875	5.941250
-1.281000	-151.585007	1019.981018	15.610000	17.368750	3.451875
45.506001	-164.029007	942.937988	-2.533125	10.465000	0.560000
67.404999	-138.653000	920.794983	-22.089375	-5.070625	10.797500
64.903999	-68.747002	931.958008	-9.940000	-2.196250	16.384375
50.386002	49.348999	998.630981	11.563125	13.768125	30.016874
56.669003	111.751999	1090.802002	26.508125	11.501875	47.459999
-28.853001	224.541000	1111.480957	29.286249	29.837500	39.961250
-39.345001	274.195007	1099.890991	-4.418750	9.988125	31.254999
-20.313000	274.011993	1011.562988	-35.848751	16.870001	16.100000
43.310001	292.006989	997.471985	-55.453125	5.088125	11.248125
70.028000	275.231995	1020.591003	-42.818127	-5.035625	12.197500
-26.474001	123.769005	955.992004	-23.161249	-8.513750	21.345625
29.707001	152.255997	966.606018	-14.485625	-3.675000	14.529375
38.857002	113.642998	989.846985	-10.758125	5.858125	9.734375
-30.683001	126.636002	926.223999	-12.849375	0.997500	12.328750
2.440000	182.328995	988.566040	-17.508751	-1.299375	8.820000
-23.485001	127.185005	952.332031	-19.320000	-8.391250	14.118125
-30.073000	150.365005	998.936035	-9.756250	-4.510625	6.203750
-45.262001	134.444000	1040.416016	4.243750	0.949375	5.779375
-58.132999	105.164001	995.885986	15.408750	-3.535000	9.436875
-35.196999	184.585999	1018.882996	26.613125	7.599375	3.880625
-61.549000	234.423004	1032.485962	16.979376	9.209375	2.550625
-51.545002	215.330002	979.355042	-4.178125	-0.161875	4.475625
-12.749001	194.956009	968.009033	-14.511875	-5.123125	4.213125
19.153999	221.307999	985.393982	-18.239374	-7.371875	0.669375
-4.941000	242.597000	958.614990	-20.842501	-5.726875	-3.158750
9.150001	209.718002	992.286987	-29.343124	-6.278125	-8.955625
19.886000	122.915001	937.387024	-21.739374	-20.986876	-10.959375
34.647999	74.664001	1004.487000	2.900625	-19.796875	-19.455626
-10.370000	83.875000	1021.627991	20.146875	-19.048750	-34.636875
76.677002	97.844002	1053.104004	25.033751	-7.503125	-46.449375
121.267998	96.136002	1076.344971	25.843124	-2.458750	-47.468750
53.862999	174.582001	1095.620972	23.852501	11.353125	-43.076248
66.734001	84.850998	1064.937988	21.468124	8.041250	-32.283127
87.168999	71.125999	1020.835022	21.468124	-5.101250	-14.227500
76.920998	50.325001	998.143005	29.216249	-5.101250	-14.227500
76.920998	50.325001	1003.389038	38.058125	4.606875	-1.754375
32.085999	61.732002	1003.389038	31.885000	-2.660000	16.135000
83.142998	-129.076004	959.164001	18.208750	-16.388750	20.378750
98.332001	-126.453003	963.129028	18.563126	-6.129375	5.661250
68.564003	-105.591003	976.609985	22.299376	7.494375	-12.604375
10.553000	-40.564999	964.226990	8.181250	-4.598125	-13.453125
-9.638000	-9.516000	992.958008	1.010625	-3.815000	-10.355625
14.945000	-22.570000	976.122009	-1.815625	-0.573125	-7.175000
-45.018002	-7.808000	1029.740967	-14.380625	-11.676875	-0.603750
22.997000	3.660000	1046.150024	-24.727501	-7.835625	-0.730625
30.316999	7.991000	1023.885010	-24.718750	-3.482500	4.558750
-9.333000	15.555000	1018.395020	-24.014376	-6.085625	13.606250
68.076004	-23.851000	1014.186035	-13.479375	-0.953750	14.017500
19.153999	-29.097000	983.807983	-1.159375	4.733750	20.873125
38.612999	-28.059999	1029.557983	5.998125	4.996250	23.988125
73.383003	-81.801003	1007.903015	3.705625	4.598125	26.958750
23.546000	-116.388000	959.408020	1.588125	4.523750	27.715626
64.721001	-88.816002	1032.364014	9.668750	9.441250	20.916876
31.354000	-96.929001	967.460022	18.983126	20.676250	13.982500
65.086998	-26.901001	1003.999023	21.293125	17.228750	18.326876
26.901001	127.734001	1088.545044	19.018126	16.489374	18.165001
71.003998	38.368999	949.403992	8.225000	17.526251	28.726250
88.084000	64.660004	1029.313965	0.765625	2.095625	36.369373
31.049000	169.458008	1041.148071	1.671250	23.065001	12.652500
8.845000	78.568001	969.960999	-5.967500	13.803125	16.988125
-11.651000	79.910004	981.367981	-6.606250	-0.686875	21.809376
78.445999	106.017998	958.492981	-6.794375	12.569375	23.638124
27.572001	85.095001	985.882019	-23.817499	-11.935000	34.369999
128.770996	155.611008	1079.456055	-18.068750	-15.824375	24.084375
69.845001	165.005005	1053.652954	-15.627500	-6.558125	21.201250
-51.056999	112.301003	973.194031	-22.141874	-3.241875	26.503750
54.290001	191.173996	1135.149048	-12.950000	8.946875	11.764375
51.972000	163.662994	1031.937012	-6.321875	19.258751	5.158125
-62.646999	154.147003	916.036987	-11.099375	6.361250	13.151250
-31.354000	159.027008	952.393005	4.318125	8.868125	6.164375
17.385000	171.287994	963.434021	21.258125	19.070625	1.596875
-80.946999	230.335999	962.458008	20.186251	0.026250	9.992500
-13.847000	210.816010	980.026001	20.794374	4.676875	3.053750
-14.640000	218.319000	993.080017	8.260000	-0.245000	5.906250
-25.437000	178.912994	975.390015	-1.802500	-10.990000	6.216875
15.616000	211.548004	991.250000	-4.681250	-6.173125	-0.826875
-44.774002	215.878998	983.259033	-11.405625	-5.298125	-2.922500
-12.810000	220.270996	991.189026	-11.125625	-7.848750	-3.066875
-30.622000	239.303009	1002.351990	0.700000	-7.245000	-5.162500
12.688000	315.858002	994.361023	6.978125	0.371875	-13.251875
13.664001	307.501007	984.845032	-4.991875	-8.540000	-17.731874
63.867001	297.252991	992.408997	-16.493750	-17.845625	-19.814375
77.225998	253.272003	1024.800049	-26.018126	-14.678125	-22.491875
90.767998	177.753998	974.048035	-31.119375	-30.594376	-20.475000
86.863998	132.736008	990.884033	-1.802500	-17.145624	-36.207500
154.391006	45.688999	993.751038	31.307501	-1.439375	-42.354374
102.601997	128.893005	985.942993	56.892502	-3.854375	-40.477501
107.787003	142.740005	1087.081055	66.880623	5.884375	-48.496876
136.152008	204.350006	1045.967041	46.873749	9.056250	-47.385624
-35.746002	183.975998	1024.373047	28.083124	7.205625	-50.955624
219.539001	91.622002	1071.037964	14.525000	-7.752500	-47.245625
55.937000	-37.088001	1004.914001	-9.778125	-21.975624	-35.678123
129.197998	-69.905998	1017.601990	-18.200001	-1.820000	-33.219376
87.778999	-141.214996	1008.513000	-30.979376	-9.371250	-22.041250
51.972000	-192.028000	972.705994	-25.274376	5.818750	-11.445000
-58.194000	-108.275002	1014.429993	-27.527500	-5.118750	-4.383750
15.006001	-208.925003	964.531982	-28.113750	-2.296875	-0.743750
-24.095001	-191.173996	952.027039	-10.810625	2.415000	-0.175000
-18.849001	-144.203995	973.742981	2.003750	4.182500	-1.251250
-76.799004	-54.411999	954.040039	7.008750	9.620625	-0.153125
-6.649000	-21.716000	999.668030	5.359375	6.356875	-6.794375
40.138000	43.371002	1036.328979	1.001875	-4.331250	4.733750
35.014000	-13.603000	974.536011	-1.386875	-10.793125	16.126249
49.532001	-29.158001	1028.520996	3.535000	-0.437500	11.248125
42.882999	-33.306000	1052.311035	11.081875	9.826250	6.593125
11.468000	-118.889000	981.429016	6.807500	2.187500	15.693125
48.739002	-72.468002	1005.218994	10.290000	5.446875	10.815000
-8.845000	-3.721000	884.561035	17.526251	21.205626	11.068750
-2.623000	13.908000	953.002991	-6.829375	-3.377500	22.859375
79.971001	26.474001	991.677002	-13.518750	-2.633750	22.540001
57.401001	111.934998	1087.141968	-7.052500	18.471251	6.492500
60.938999	89.364998	979.049988	-21.529375	11.458125	-1.168125
3.599000	176.595001	1022.848022	-8.833125	8.745625	0.700000
104.737000	73.016998	985.088989	7.778750	21.450624	2.695000
-36.966000	123.890999	912.132996	10.434375	11.523750	24.097500
-85.155998	139.811996	1005.402039	24.876249	21.061251	27.090000
-58.194000	177.205002	980.819031	16.590000	16.638124	20.243126
-194.651001	133.651001	908.960999	6.356875	-5.096875	22.942499
-7.564000	186.233002	1024.494995	8.623125	-0.695625	14.612500
-48.250999	188.001999	1001.559021	0.603750	0.686875	17.469376
-28.975000	213.927002	1020.713013	-11.821250	-9.909375	24.854376
47.336002	208.863998	1049.078003	-28.861876	-12.512500	23.178749
28.059999	168.177002	1004.059998	-40.201874	-16.008125	16.721251
43.066002	203.434998	1017.236023	-34.243126	-9.078125	7.581875
36.295002	189.344009	1011.441040	-21.708750	-4.274375	2.515625
-52.521000	177.083008	964.288025	-3.998750	2.384375	6.470625
-21.960001	165.005005	1022.116028	-1.019375	-3.753750	6.825000
13.115000	114.192001	991.616028	-5.621875	-6.168750	3.167500
5.429000	106.932999	1007.842041	-7.691250	-2.848125	1.408750
-4.331000	70.210999	1001.681030	-9.546250	-6.230000	-0.608125
19.215000	63.135002	1010.587036	-3.298750	-2.240000	-3.307500
-9.211000	53.741001	1014.247009	-0.984375	-2.104375	-3.294375
16.469999	61.792999	1021.932983	-0.538125	0.301875	-5.901875
21.410999	62.586002	1008.330017	-0.840000	-0.148750	-6.628125
27.999001	126.148003	1042.916992	0.415625	0.402500	-8.736875
40.869999	152.378006	1046.577026	0.415625	1.264375	-9.047500
41.358002	152.744003	1001.986023	-4.033750	1.264375	-9.047500
41.358002	152.744003	993.629028	-13.426875	-0.511875	-6.440000
6.710000	234.544998	993.629028	-21.319374	0.673750	-13.921250
83.326004	81.251999	851.559998	-14.376250	-6.059375	-12.215000
-80.946999	120.719002	853.512024	22.500626	-1.238125	-9.296875
129.503006	227.408005	1115.323975	51.305626	7.236250	-17.574375
82.472000	113.947998	1061.217041	49.511875	-10.136875	-8.745625
-37.514999	115.655998	1083.542969	43.491875	-13.046250	-17.583124
97.112000	108.885002	1134.051025	36.426250	-2.038750	-43.531250
68.564003	56.303001	1057.618042	23.344999	-0.800625	-46.602501
16.592001	24.400000	1005.829041	14.389375	-18.956875	-44.108749
23.607000	17.750999	945.988037	24.504375	-3.416875	-50.194374
84.545998	15.372000	898.530029	21.542500	4.427500	-37.738750
17.263000	57.340000	1038.098022	17.412500	-2.568125	-26.048750
103.883003	-31.415001	957.333984	5.516875	-0.004375	-18.090626
45.688999	-49.288002	963.494995	-17.180626	-23.598749	-0.831250
-5.856000	-22.570000	1022.238037	-11.672500	-13.960625	-7.271250
61.427002	-38.186001	1037.365967	-5.626250	5.530000	-7.708750
-32.818001	-34.098999	996.434998	-14.931875	-5.481875	-5.845000
82.289001	-10.919000	1018.882996	-14.245000	-1.758750	-10.815000
32.939999	34.282001	1007.049011	-13.973750	0.354375	-10.049375
34.647999	30.256001	996.557007	-21.665001	-4.497500	-3.517500
69.479004	-8.723001	1013.575989	-21.958124	-4.948125	0.065625
28.609001	-19.703001	1006.072998	-19.018126	-1.662500	1.579375
3.599000	-50.386002	987.468018	-13.378750	-2.441250	3.364375
11.773000	-43.249001	1050.786011	0.065625	-1.146250	-8.032500
29.036001	-4.453000	1024.494995	10.924375	10.976875	-12.026875
45.506001	-15.799000	992.470032	18.523750	11.081875	-0.945000
91.134003	-51.240002	996.312988	26.770624	9.021250	8.273125
25.254000	-41.907001	951.478027	28.030624	9.940000	13.597500
33.855000	-41.602001	938.973022	18.480000	3.132500	17.241875
33.062000	-56.852001	986.004028	0.765625	-3.364375	18.781876
-0.610000	29.341000	979.355042	-14.651875	-7.214375	17.298750
32.879002	59.658001	995.276001	-15.343125	-1.216250	20.619375
119.011002	-5.368000	1006.866028	-17.123751	3.937500	24.775625
69.784004	52.948002	1016.320984	-13.304375	-0.398125	33.932499
37.942001	52.338001	1083.665039	-1.872500	1.754375	36.745625
35.501999	89.243004	994.726990	5.092500	3.618125	36.588123
72.041000	117.730003	1099.829956	22.618750	5.652500	21.385000
93.757004	274.134003	1136.247070	22.767500	19.656876	12.394375
-121.756004	233.934998	1002.901001	-8.080625	11.042500	14.376250
-15.616000	243.695007	984.418030	-36.150623	10.854375	3.587500
157.807007	221.247009	1019.859009	-47.958752	0.739375	3.416875
-1.220000	172.874008	927.809998	-44.541874	-7.507500	11.388125
76.372002	171.776001	990.152039	-22.509375	1.872500	5.709375
49.959000	121.512001	958.432007	-7.621250	0.441875	13.383125
-66.184998	58.804001	949.708984	-1.789375	0.910000	13.654375
45.811001	79.238998	991.127991	5.320000	1.461250	3.933125
-21.350000	87.291000	943.304016	17.705626	2.117500	5.114375
-43.859001	112.423004	982.161011	22.128750	5.315625	2.436875
12.810000	115.960999	1010.526001	19.499374	1.618750	4.064375
-48.922001	71.675003	992.713989	14.358750	-2.559375	5.604375
-2.318000	103.456001	1031.692993	7.420000	-0.835625	-1.312500
22.753000	112.056999	1029.557983	2.148125	0.468125	-7.498750
16.653000	114.375000	1009.794006	2.288125	2.415000	-14.813750
61.487999	154.268997	996.557007	5.613125	3.237500	-22.903126
16.714001	196.542007	971.913025	8.925000	6.912500	-28.266874
21.289000	223.260010	984.296021	3.981250	7.218750	-29.308125
5.002000	259.677002	977.768982	-1.487500	-2.371250	-16.673124
-28.914000	252.723007	988.322021	-1.338750	-5.460000	-10.167500
19.276001	226.859009	978.135010	-4.042500	-7.284375	-12.206250
27.023001	205.875000	941.413025	-3.880625	-12.280625	-7.612500
-122.915001	202.886002	954.406006	20.291250	-17.596251	-15.290625
81.008003	126.514000	1006.927002	54.333126	-1.981875	-27.650000
102.906998	124.318001	1116.787964	56.848751	-11.633125	-17.482500
38.430000	126.758003	1129.109985	42.336876	-16.253124	-26.468750
129.686005	85.217003	1073.539062	18.318125	-2.651250	-40.346249
26.047001	28.243000	1040.904053	-24.045000	4.567500	-34.181873
-17.629000	-21.106001	960.262024	-46.125626	-7.472500	-26.486250
8.418000	-32.757000	1009.244995	-44.336250	-8.610000	-14.796250
7.442000	-52.338001	995.885986	-40.836250	-2.843750	12.197500
-38.917999	-90.829002	922.380981	-25.729376	-0.822500	7.175000
112.239998	-109.312004	1004.487000	0.708750	11.991875	-0.923125
15.006001	-111.630005	951.294983	10.241875	7.936250	1.478750
-9.211000	-56.059002	935.617981	19.621876	4.895625	-0.962500
-26.474001	21.960001	1037.061035	23.931250	1.649375	-0.555625
-22.875000	-29.158001	982.161011	12.446875	2.148125	2.778125
2.135000	-7.015000	976.182983	1.544375	-8.273125	6.273750
-27.938000	11.773000	1023.092041	0.275625	-3.657500	1.050000
1.342000	-11.285000	985.942993	-6.387500	-2.498125	0.210000
19.153999	-17.995001	994.239014	-7.870625	-2.572500	0.118125
-7.991000	-1.220000	1009.062012	-3.023125	1.356250	-3.504375
7.442000	-12.139000	977.830017	-1.487500	3.355625	-2.445625
-24.644001	-14.396000	1010.648010	4.025000	-1.050000	4.694375
-65.209000	-33.428001	1060.973022	8.071875	5.980625	0.861875
-62.037003	-87.901001	1014.918030	6.203750	7.686875	-2.743125
-14.396000	-113.642998	1033.218018	6.781250	1.640625	0.087500
-11.529000	-118.828003	1033.218018	3.473750	-3.666250	1.155000
60.695000	-139.873001	945.317017	-0.835625	-8.207500	5.171250
61.487999	-48.190002	977.342041	6.930000	3.395000	7.931875
103.821999	5.795000	1005.645996	9.441250	12.836250	10.381875
12.200000	102.906998	942.450012	8.754375	7.647500	22.421875
73.566002	115.655998	1054.873047	9.310000	-1.124375	36.019375
43.066002	143.593994	1001.070984	1.575000	6.768125	44.909374
-39.833000	147.070999	1027.118042	-22.321251	-3.543750	43.850624
65.391998	160.063995	1025.776001	-34.763748	-0.686875	31.683750
-25.620001	122.792999	954.955017	-39.375000	-2.738750	37.432499
65.270004	-5.490000	982.343994	-36.391251	2.743125	17.530624
148.046997	70.760002	1036.328979	-18.742500	11.641875	-0.905625
-37.942001	33.367001	957.578003	-7.516250	3.701250	-2.288125
-59.719002	187.026001	1024.983032	-3.871875	1.255625	-4.239375
55.205002	226.126999	1063.412964	-10.220000	-1.168125	8.491875
1.403000	141.581009	980.330994	-17.727501	-18.637501	17.338125
46.237999	59.779999	1047.552979	-4.659375	-10.320625	15.802500
78.690002	19.093000	1045.296021	2.502500	-0.608125	16.095625
-30.378000	-46.116001	984.418030	1.229375	-5.035625	14.091875
78.323997	-62.341999	997.106018	9.716875	2.813125	3.128125
31.598000	21.167000	1022.543030	9.716875	8.645000	3.010000
-25.437000	-11.590000	993.202026	14.188125	8.645000	3.010000
-25.437000	-11.590000	1017.906982	5.840625	0.708750	2.253125
54.595001	28.609001	1017.906982	4.230625	6.671875	-4.799375
-3.721000	12.566000	1052.067017	2.546250	3.403750	2.498125
4.941000	10.858000	1044.380981	-6.116250	-2.336250	3.806250
45.688999	0.671000	1030.046021	-10.329375	6.068125	0.175000
43.188000	-10.309000	1019.859009	-19.127501	1.211875	3.189375
-11.407001	20.496000	946.781006	-23.795626	5.416250	-4.112500
40.931000	51.728001	973.072021	-20.711250	8.828750	-3.688125
-2.928000	90.951004	965.934998	-13.702500	-6.251875	5.543125
-26.047001	144.264999	965.142029	6.378750	-0.280000	6.186250
25.437000	190.076004	1016.199036	12.840625	-2.471875	3.976875
-49.227001	218.990005	994.117004	15.312500	-3.635625	-5.621875
-22.082001	278.037994	892.369019	25.278749	8.771875	-29.483126
52.948002	135.175995	804.651001	50.124374	19.678749	-32.794998
40.320999	261.628998	1049.566040	66.955002	8.601250	-34.781250
18.849001	208.193008	1040.964966	43.929375	-9.423750	-35.822498
103.151001	206.790009	1062.071045	19.403126	-29.391251	-19.193125
71.858002	182.207001	1218.780029	8.824375	-38.285625	-16.756250
121.817001	62.525002	1101.354980	-9.725625	-29.850624	-22.010626
121.146004	45.993999	1096.230957	-12.678750	-25.204374	-15.391250
49.348999	-50.874001	1071.221069	0.437500	-1.421875	-27.409374
176.046005	-17.568001	1057.495972	8.216250	15.330000	-35.971249
7.991000	-33.306000	972.278992	1.141875	-2.646875	-21.520624
-6.710000	-66.856003	900.054993	11.138750	-7.844375	-25.068750
98.697998	8.540000	986.431030	21.892500	2.305625	-19.630625
12.993000	19.153999	1004.059998	9.966250	6.597500	-18.094999
38.125000	-21.167000	939.400024	2.813125	9.283750	-15.006250
73.016998	-72.590004	991.921021	-15.268750	-6.107500	-4.550000
12.078000	-50.569000	992.958008	-29.811251	3.657500	-4.545625
-16.165001	-105.347000	1002.778992	-25.921875	-0.980000	-2.620625
-3.294000	-139.080002	980.575012	-28.122499	-10.045000	1.369375
-11.529000	-144.753006	981.612000	-21.328125	-7.997500	3.513125
-0.488000	-190.930008	995.153992	-8.859375	-0.971250	0.962500
18.361000	-159.942001	980.148010	-3.753750	-0.052500	-0.691250
-3.477000	-128.832001	999.729004	1.141875	8.334375	-3.815000
-1.708000	-129.930008	1040.233032	-1.128750	10.517500	-1.063125
27.328001	-213.438995	1029.863037	-4.488750	0.586250	4.108125
13.176001	-191.600998	1015.161987	-0.004375	4.296250	5.783750
-35.136002	-155.001007	1049.383057	1.137500	2.445625	13.702500
-10.675000	-161.833008	975.329041	0.262500	-1.645000	11.256875
54.473000	-49.837002	1120.753052	-1.448125	7.616875	11.668125
80.886002	-105.103004	1013.332031	-8.540000	7.533750	21.450624
52.277000	-97.051003	945.561035	-8.570625	4.261250	32.095001
96.136002	-48.373001	975.390015	8.951250	8.995000	36.575001
55.083000	-29.219000	933.604980	15.946875	14.336875	40.355000
-51.300999	29.646000	950.380005	19.328751	6.033125	43.946877
73.200005	54.473000	991.981995	22.496250	2.966250	26.879999
-21.106001	113.704002	994.971008	2.056250	3.128125	20.440001
7.076000	81.618004	1034.620972	-20.475000	-8.627500	21.498751
173.606003	63.806000	1061.034058	-25.370625	-7.774375	14.056875
33.672001	64.903999	1010.770020	-21.236250	-1.885625	21.704374
66.124001	84.119003	1092.204956	-14.148750	1.439375	18.755625
86.925003	112.118004	1052.432983	-2.371250	12.923750	8.102500
-44.834999	137.494003	1007.109985	-3.670625	16.257500	9.681875
26.291000	85.827003	1040.050049	-9.918125	6.011250	10.115000
5.185000	94.123001	970.083008	-11.589375	3.976875	6.825000
-69.235001	94.428001	991.311035	-9.428125	8.881250	2.572500
24.400000	50.691002	980.941040	-9.905000	-4.392500	2.226875
-32.635002	44.225002	923.601013	-0.608125	3.535000	-0.721875
-47.702000	40.138000	967.093994	5.836250	6.466250	1.618750
-31.598000	47.640999	937.204041	5.565000	-4.755625	3.202500
-53.253002	106.262001	982.221985	9.738750	-0.030625	-0.363125
-5.856000	113.277000	1012.966003	5.320000	-3.613750	-2.209375
-13.237000	157.014008	1008.025024	2.852500	-8.054375	3.250625
-22.753000	118.035004	1047.308960	6.278125	-4.020625	-0.258125
63.257000	140.483002	1026.508057	16.025625	1.181250	-9.603125
6.039000	153.110001	983.137024	24.106251	1.815625	-8.461250
70.272003	187.697006	1029.802002	-2.611875	-7.822500	-14.179375
62.769001	124.074005	880.291016	-22.321251	-22.365000	-17.976875
11.712000	111.691002	946.415039	-7.371875	-19.818750	-22.973125
-8.784000	108.092003	1059.753052	-5.661250	-15.015000	-27.299999
69.784004	39.589001	1020.103027	3.491250	-25.038124	-29.023750
54.778000	98.576004	1181.997070	18.891251	-3.456250	-30.563749
91.927002	139.568008	1182.790039	-12.276250	3.845625	-36.750000
98.759003	19.703001	951.234009	-35.183750	-0.805000	-30.966249
176.533997	-16.775000	1097.328979	-39.344376	-6.763750	-25.694374
206.423996	-164.272995	927.809998	-48.763748	-21.673750	-24.346874
58.011002	-160.247009	852.658020	-3.246250	-7.713125	-12.241250
-12.505000	-329.522003	944.158020	42.157501	10.863125	-8.684375
46.482002	-96.380005	983.502991	67.213127	-1.216250	-38.233124
17.934000	-87.778999	1052.677002	59.285625	18.830000	-35.796249
94.916000	-190.747009	894.504028	11.615625	7.713125	-25.969999
45.506001	-71.492004	960.932983	-0.411250	13.265000	-23.870001
44.164001	-68.930000	1036.634033	-12.814375	4.611250	-14.240625
0.427000	-65.331001	975.634033	-11.296250	-19.127501	-6.724375
63.928001	-1.220000	1055.727051	10.473750	0.896875	-12.709375
-9.089000	-8.479000	993.080017	16.738750	5.131875	-13.238750
-38.796001	-124.745003	944.890015	13.755000	1.522500	-13.671875
79.910004	-46.970001	1028.643066	2.463125	-2.121875	-19.630625
32.452000	-89.974998	984.052002	5.766250	11.213125	-21.223125
11.712000	-19.703001	1008.025024	-1.487500	7.332500	-15.286250
8.540000	-65.758003	985.333008	-8.413125	-23.756250	-13.746250
60.817001	-66.001999	1074.576050	-8.001875	-9.323125	-20.221251
95.221001	-8.540000	973.010986	-16.795626	-5.757500	-17.753750
89.974998	14.091001	1008.757019	-20.400625	-5.945625	-17.263750
23.302000	89.914001	1013.515015	-15.566250	1.006250	-1.645000
33.489002	-96.258003	984.296021	-13.623750	2.353750	2.769375
53.375000	-86.803001	1000.278015	-4.550000	7.511875	-0.485625
-11.224000	-116.998001	1020.591003	8.054375	11.221875	-8.373750
38.247002	-140.971008	957.578003	16.690624	12.775000	-11.545625
5.246000	-100.100998	1039.379028	16.489374	1.715000	-10.036250
-7.625000	-113.154999	968.741028	21.638750	9.900625	-10.014375
23.424000	-179.706009	994.788025	12.836250	5.228125	-4.777500
66.612000	-308.782013	983.625000	12.836250	-2.187500	-8.321250
-52.643002	-162.076996	1073.112061	7.551250	-2.187500	-8.321250
-52.643002	-162.076996	987.163025	13.111875	9.375625	-16.940001
-55.388000	-199.408997	987.163025	10.959375	14.192500	-13.650000
-24.400000	-226.981003	1004.426025	8.295000	11.348750	-4.720625
-36.173000	-20.679001	1039.623047	10.355625	8.526875	-1.513750
-52.948002	-74.237000	975.877991	11.720625	13.260625	9.695000
26.108000	-85.460999	981.307007	13.076875	4.099375	18.668125
-20.374001	97.722000	1068.292969	24.797501	3.119375	17.902500
-11.529000	36.478001	984.113037	14.380625	6.540625	23.870001
27.877001	40.443001	970.754028	2.918125	-4.182500	24.346874
70.028000	106.811005	1097.572998	-2.095625	9.896250	18.514999
101.015999	-33.549999	918.111023	-23.082500	-5.608750	33.245625
-20.984001	36.660999	930.616028	-20.247499	-14.599375	29.360624
105.834999	82.837997	1004.059998	-14.293125	1.841875	29.172501
33.977001	60.938999	956.479980	-24.027500	-18.230625	42.223125
21.106001	78.873001	980.575012	3.075625	-12.232500	35.481251
58.011002	65.270004	1063.046997	-0.210000	-1.041250	28.844376
-24.034000	102.785004	1003.632996	-23.078125	-23.559376	25.812500
-2.135000	77.653000	1011.075012	0.100625	-6.553750	19.687500
24.400000	46.970001	1003.999023	4.221875	2.940000	12.783750
20.862000	61.487999	1036.634033	1.290625	-2.883125	21.525000
80.520004	22.631001	1028.276978	23.450001	2.366875	20.838125
42.517002	126.026001	1023.824036	31.386250	20.895000	10.040625
-4.270000	174.216003	1054.079956	22.137501	18.563126	15.649375
-23.668001	138.225998	1008.330017	2.266250	8.430625	13.269375
30.927000	110.593002	979.416016	-21.573126	0.853125	13.956250
38.003002	-10.431000	966.911011	-19.162500	-9.261875	17.508751
118.096001	2.074000	944.218994	3.688125	2.191875	5.114375
-35.257999	-3.111000	1014.734985	11.541250	4.720625	12.429375
-25.010000	54.656002	1023.275024	13.103125	-3.771250	12.722500
-42.090000	155.611008	1116.421997	0.809375	6.759375	-3.093125
-56.242001	82.532997	983.991028	-21.778749	3.911250	-13.251875
48.190002	123.037003	1010.770020	-38.766876	-14.564375	-6.615000
68.869003	42.577999	949.526001	-36.540001	-15.518125	0.078750
40.687000	76.799004	965.996033	-15.185625	-9.196250	0.266875
114.314003	45.506001	1047.796997	9.428125	0.656250	-6.151250
-28.548000	23.485001	977.403015	15.500625	7.568750	-10.351250
22.143000	50.874001	1011.441040	7.896875	-0.288750	-11.641875
-12.444000	81.496002	1022.604004	-1.575000	0.000000	-5.989375
3.416000	-29.036001	1006.744019	-14.284375	-7.175000	-4.453750
78.690002	39.589001	1078.175049	-13.803125	-1.430625	-5.923750
-12.688000	-115.045998	1012.843994	-6.098750	8.894375	2.751875
90.036003	-94.733002	1027.484009	23.301250	4.497500	6.899375
62.525002	65.453003	1038.708008	24.010000	6.221250	2.730000
-38.612999	106.201004	969.595032	0.052500	19.180000	-0.161875
-8.906000	66.794998	952.332031	-16.371250	-1.933750	10.268125
-7.442000	-16.653000	929.579041	-16.261875	-10.136875	11.593750
-13.847000	29.036001	1003.572021	-4.830000	-6.020000	5.499375
51.789001	-29.097000	976.061035	2.261875	-6.956250	1.925000
15.433001	60.878002	1016.869995	1.995000	-5.018125	-7.529375
-57.278999	-25.437000	965.080994	-1.981875	-8.316875	-5.390000
98.697998	-35.441002	1024.677979	-2.961875	-19.149376	-1.601250
25.681000	65.453003	1041.270020	2.012500	3.316250	-7.538125
65.086998	4.514000	1005.645996	-7.096250	2.581250	0.708750
29.524000	-58.316002	998.752991	-12.801250	-2.690625	5.573750
46.726002	-78.445999	1026.995972	-5.731250	5.495000	-0.647500
16.836000	-2.684000	1001.437012	-6.146875	2.830625	-4.563125
-9.821000	77.225998	1018.212036	-12.928125	2.331875	-1.636250
25.802999	62.341999	983.686035	-15.386875	4.576250	3.167500
3.355000	50.569000	951.112000	-8.028125	6.348125	8.010625
-0.488000	79.788002	983.442017	6.632500	8.273125	4.882500
-13.664001	7.869000	956.785034	21.008751	6.028750	3.906875
1.464000	74.114998	996.434998	22.631874	1.207500	0.643125
22.997000	31.171000	991.372009	17.893749	-0.708750	-4.383750
32.757000	86.803001	967.887024	15.802500	-4.335625	-6.943125
52.887001	52.459999	1013.332031	15.080625	0.288750	-4.431875
-5.795000	54.778000	1006.682983	12.075000	1.474375	-4.016250
78.507004	17.750999	999.729004	16.506874	-14.905625	-1.981875
6.161000	81.984001	1019.249023	20.321875	-18.410000	-4.707500
86.558998	46.482002	1015.283997	24.591875	-2.165625	-13.413750
64.598999	55.937000	1031.875977	15.176875	-8.666875	-6.479375
40.809002	58.987000	1015.893982	-4.086250	-15.706250	-12.022500
73.078003	42.577999	996.862000	-17.189375	-2.082500	-16.708124
57.218002	33.244999	1071.160034	-25.620001	-30.891874	3.342500
85.643997	-0.122000	985.577026	-17.316250	-18.445000	-5.302500
151.828995	24.339001	988.871033	3.500000	4.138750	2.778125
-4.880000	-55.265999	1013.759033	2.585625	-8.754375	7.035000
53.070000	15.555000	1056.520020	6.024375	17.036249	-18.466875
75.822998	31.476000	1036.634033	4.221875	16.660000	-14.638750
70.638000	-22.143000	965.934998	-4.230625	-5.656875	-8.452500
130.540009	41.114002	995.520020	8.032500	18.396875	-7.161875
-46.299000	28.731001	973.010986	-1.369375	15.925000	4.379375
99.490997	-79.910004	1005.402039	-19.044374	-16.248751	5.407500
53.070000	-73.383003	1000.338989	-8.496250	-3.696875	-4.326875
53.680000	-72.346001	993.872986	-3.784375	-5.722500	-13.422500
40.687000	-50.447002	1010.403992	0.840000	-16.410625	-25.510626
57.950001	0.915000	1063.656982	2.926875	2.371250	-27.593124
31.415001	-70.455002	982.954041	-6.068125	-2.668750	-26.306875
165.371002	-76.920998	981.489990	9.887500	4.720625	-23.065001
71.613998	-29.036001	1055.787964	16.795626	9.568125	-24.889376
60.207001	-37.881001	1002.169006	11.598125	5.783750	-23.668751
26.962000	-30.927000	988.749023	8.758750	-4.375000	-17.193750
8.418000	-30.134001	996.312988	10.946250	7.376250	-17.342501
43.980999	26.352001	961.970032	11.134375	-6.444375	-3.797500
22.997000	-5.856000	1068.109985	6.247500	-12.075000	-2.493750
125.598999	-18.849001	1010.708984	-2.476250	-9.025625	-0.901250
8.601000	-2.684000	953.125000	-5.271875	-11.895625	3.101875
99.552002	-55.449001	987.041016	-1.684375	-1.929375	2.966250
129.320007	-35.319000	1015.406006	5.079375	2.585625	-2.380000
72.163002	-1.525000	1036.451050	4.064375	9.603125	-6.488125
39.406002	-43.249001	982.648987	-2.318750	1.106875	-6.995625
131.393997	-22.997000	1050.968994	9.187500	6.510000	-8.330000
30.073000	-46.542999	1007.109985	18.143126	15.645000	-8.054375
17.202000	-95.526001	987.833984	10.141250	11.313750	-10.285625
84.973000	-134.992996	987.590027	-0.004375	1.351875	-7.240625
-36.844002	-142.069000	990.700989	-1.461250	-0.914375	-7.100625
6.222000	-156.526001	1009.733032	-9.043125	-8.150625	-9.555000
-6.832000	-122.915001	1013.393005	-9.043125	-11.698750	-6.947500
-4.575000	-158.904999	1000.338989	-5.302500	-11.698750	-6.947500
-4.575000	-158.904999	1061.034058	-6.693750	-8.526875	-4.112500
78.873001	-138.531006	1061.034058	-12.613125	-10.828125	-0.778750
35.441002	-129.137009	1005.585022	-8.124375	-0.844375	6.960625
64.903999	-134.322006	963.617004	-2.594375	-6.282500	11.764375
91.256004	-31.537001	988.260986	17.071251	-1.960000	13.422500
62.708000	19.337000	1000.033997	16.231251	10.552500	13.103125
47.091999	31.110001	1013.088013	14.695625	18.563126	6.951875
93.695999	94.672005	1062.802979	7.669375	12.709375	1.404375
86.558998	32.208000	963.007019	0.210000	21.179375	11.318125
54.900002	14.640000	977.098022	-6.505625	10.863125	10.473750
75.091003	69.600998	1029.863037	8.474375	13.816250	14.498750
41.236000	11.163000	870.348022	16.152500	5.140625	28.761250
-18.788000	80.336998	943.182007	30.156876	1.841875	28.144375
-6.588000	187.391998	1024.129028	38.447498	14.647500	23.073750
26.962000	48.312000	934.093018	14.866250	-12.652500	24.224375
-7.564000	124.440002	1007.720032	16.078125	-7.065625	8.666875
68.076004	91.865997	1060.363037	15.977500	13.090000	-2.795625
43.980999	144.996994	983.807983	-8.010625	-4.366250	3.596250
-25.437000	156.891998	1010.403992	0.971250	-2.292500	3.465000
104.371002	118.766998	982.039001	-4.865000	4.274375	0.573125
-74.724998	229.787003	1040.904053	-12.761875	-7.910000	6.514375
-64.781998	135.298004	1030.473022	-0.258125	3.885000	-5.022500
-0.854000	195.199997	1089.216064	-16.891874	32.313751	-22.876875
-33.062000	153.537003	1044.807983	-43.128750	15.903125	-14.608125
112.423004	127.185005	1063.169067	-47.438126	-9.541875	-9.520000
45.445000	124.195999	973.499023	-19.372499	-5.600000	-4.536875
-76.982002	94.062004	945.804993	11.453750	9.095625	5.223750
17.934000	183.731995	1015.588989	15.050000	2.795625	0.192500
-28.304001	94.367004	913.841003	10.609375	13.702500	-0.336875
-5.795000	205.203995	1018.944031	0.787500	16.865625	-8.382500
-2.501000	335.561005	977.768982	-18.370625	-1.920625	-4.186875
-92.415001	244.854004	952.637024	-20.641251	-4.318125	6.444375
-108.335999	263.580994	995.031982	-14.529375	-6.558125	-0.735000
-83.509003	269.924988	990.762024	-18.939375	-8.531250	5.525625
-157.197006	202.214996	934.093018	-18.064375	-14.975625	12.630625
2.379000	184.585999	1053.348022	-1.325625	-2.432500	-1.273125
39.955002	200.445999	1049.566040	9.703750	-0.761250	2.165625
-238.998001	8.113000	1006.927002	19.118750	10.421250	-0.083125
-33.244999	197.335007	977.220032	3.430000	2.025625	-3.740625
38.612999	125.721001	926.468018	4.659375	-4.488750	-5.026875
-6.222000	97.783005	845.093994	10.224375	-32.777500	-6.418125
144.447998	79.178001	1026.751953	24.425625	-27.448750	-17.408125
69.174004	67.161003	998.325989	46.466873	-25.353125	-23.432501
49.532001	242.352997	1132.281982	60.532501	-8.089375	-30.913750
130.723007	193.369995	1116.300049	29.338751	-2.804375	-22.404375
106.322998	129.197998	1073.539062	-6.597500	-20.028749	-8.303750
55.754002	125.538002	1110.870972	-16.716875	6.444375	-28.056875
109.617004	29.036001	1066.645996	-28.017500	4.510625	-32.549999
36.904999	30.866001	991.250000	-27.833750	-23.830626	-27.995625
92.780998	-29.158001	1027.422974	-13.623750	-5.394375	-39.886875
54.229000	-95.403999	1005.707031	-11.300625	7.901250	-44.345001
98.697998	-146.400009	962.031006	-9.345000	4.956875	-41.299999
85.034004	-141.581009	943.304016	5.306875	2.926875	-35.008751
-31.903000	-114.192001	933.971008	21.035000	9.095625	-22.198750
24.827000	-77.409004	926.651001	32.781876	3.425625	-3.053750
35.501999	-43.126999	955.504028	51.073750	18.716249	1.610000
-44.652000	-86.558998	953.674011	45.141251	26.359375	6.125000
-92.232002	20.007999	1071.343018	9.038750	1.181250	7.280000
11.102000	-16.469999	970.937012	-23.511250	-5.617500	-8.767500
-6.222000	28.059999	997.716003	-40.285000	-26.258751	-8.045625
39.894001	47.763000	1047.552979	-37.161251	-29.811251	-11.856250
112.606003	59.048000	1003.877014	-20.160000	-31.486876	-3.390625
48.799999	39.040001	1020.164001	2.135000	-26.013750	1.159375
77.958000	14.457000	987.833984	-0.796250	-25.165001	-0.017500
73.200005	11.834001	1003.937988	7.341250	1.750000	1.649375
30.316999	-39.650002	1026.935059	-5.538750	-6.606250	1.833125
71.187004	-65.696999	984.845032	-20.413750	-3.797500	-4.375000
80.946999	-74.359001	1056.947021	-11.523750	19.184376	0.035000
102.541000	-145.973007	1013.515015	-11.576250	11.204375	6.265000
85.400002	-124.013000	996.496033	-1.960000	20.833750	15.925000
81.251999	-99.735001	1004.853027	12.678750	30.117500	26.258751
16.348000	-128.100006	975.145996	13.260625	22.281876	29.596874
65.819000	-73.871002	969.229004	15.999375	22.417500	27.326250
7.381000	24.095001	1002.656982	22.469999	33.713749	28.153126
17.690001	53.924000	978.867004	2.345000	23.931250	27.825001
31.964001	90.951004	991.859985	-2.432500	14.599375	37.651249
-28.914000	36.783001	973.316040	-4.077500	15.286250	44.423752
61.976002	-4.697000	984.418030	-11.217500	12.652500	41.558125
-71.553001	45.079002	1009.244995	-2.296875	12.005000	42.560001
-1.891000	-21.960001	998.875000	-11.567500	6.216875	36.439377
-14.457000	17.141001	1015.040039	-11.576250	4.585000	27.934376
0.244000	34.647999	1028.703979	-5.884375	5.455625	23.187500
60.756001	35.990002	1067.682983	-27.501249	-13.146875	19.547501
-0.488000	79.543999	1008.085999	-20.549376	-3.202500	15.023750
-22.997000	111.996002	1006.866028	-5.009375	7.091875	7.695625
-59.230999	170.311996	1035.780029	3.084375	5.661250	8.194375
-75.884003	114.497002	979.843018	-0.673750	-2.060625	13.934375
-60.268002	143.472000	1014.247009	-0.997500	7.393750	8.172500
-68.259003	121.207001	937.936035	-0.021875	14.061250	6.737500
-23.424000	111.325005	978.989014	-8.216250	-4.134375	10.158750
-87.473999	116.083000	996.557007	1.098125	8.509375	7.748125
-40.504002	101.138000	990.457031	6.545000	-0.796250	17.259375
-50.447002	138.165009	1031.510010	11.856250	-16.183125	18.707500
-61.915001	237.716995	1102.818970	17.018749	6.251875	7.271250
14.884000	212.829010	998.387024	5.788125	4.178125	-0.223125
-37.149002	248.574997	964.898010	-2.104375	2.642500	-0.061250
-86.742004	266.752991	1006.622009	-15.859375	1.299375	2.156875
-57.096001	185.074005	967.398987	-21.818125	-5.254375	2.734375
-82.289001	191.113007	986.553040	-6.470625	-1.522500	-0.665000
-14.945000	221.917999	1028.216064	7.875000	10.241875	-8.649375
-41.663002	181.597000	971.669006	4.558750	4.046875	-11.803750
-75.396004	216.854996	983.197998	-13.444375	-16.060625	-16.708124
39.955002	145.485001	956.541016	-29.938126	-20.024376	-17.591875
-87.718002	39.406002	896.333984	-24.128124	-18.160625	-17.320625
13.847000	33.123001	1076.467041	-24.128124	-16.218124	-28.796249
26.108000	-65.331001	966.728027	-21.704374	-16.218124	-28.796249
26.108000	-65.331001	985.333008	-8.071875	-18.370625	-31.399376
-21.960001	-31.903000	985.333008	30.734375	-0.122500	-38.351250
41.968002	-46.360001	1069.269043	38.486874	-2.244375	-36.570625
17.995001	-34.282001	991.494019	42.717499	0.875000	-37.445625
79.543999	-8.174000	1015.223022	36.610001	-2.121875	-37.489376
85.583000	81.984001	1040.354980	9.152500	-3.871875	-33.105625
85.765999	-55.388000	917.684021	-17.718750	-21.555626	-18.392500
43.005001	-119.681999	1010.281982	-20.269375	-2.948750	-19.858126
33.489002	-38.857002	1040.294067	-33.009377	1.977500	-19.919374
73.139000	-159.514999	1077.931030	-31.968124	-2.765000	-12.954375
20.557001	-151.218994	1102.087036	-12.140625	13.606250	-11.672500
15.067000	-184.098007	1049.993042	12.530000	17.211250	-2.458750
-107.848000	-127.001999	1018.822021	27.308750	31.018749	-2.909375
-79.910004	-243.207001	887.001038	30.498125	33.359375	-4.042500
-191.540009	-167.628006	908.473022	36.977501	23.021250	-1.767500
-106.811005	-113.764999	971.119995	25.086250	21.266874	-12.766250
-116.083000	-131.516006	876.692017	13.234375	7.341250	-10.023125
-137.311005	-37.820000	971.973999	2.690625	-3.675000	-7.091875
-68.625000	-25.010000	943.487000	-1.907500	-7.323750	-4.611250
-112.179001	-20.191000	978.989014	-6.750625	-9.804375	-3.740625
-80.398003	33.244999	1010.160034	-10.806250	-8.426250	-5.333125
-62.586002	5.795000	1009.306030	-12.114375	-4.808125	-4.519375
-80.764000	-6.405000	996.496033	-12.919375	-7.748125	0.048125
-83.692001	-18.971001	1021.079041	-13.772500	-8.395625	-0.809375
-73.200005	-65.270004	977.525024	-12.753125	-10.145625	-0.844375
-63.744999	-137.311005	969.595032	-6.203750	-10.478125	1.391250
-90.707001	-165.675995	963.007019	-6.352500	-11.760000	3.294375
-76.494003	-192.455002	942.450012	-10.272500	-18.637501	5.595625
-40.931000	-221.063995	944.890015	-7.000000	-27.930000	2.931250
11.041000	-172.751999	974.780029	-5.709375	-22.443750	5.136250
17.019001	-111.874001	1009.122986	-11.396875	-23.633751	18.125626
26.047001	-180.255005	1058.532959	-12.131875	-21.354376	20.264999
95.586998	-145.119003	1023.824036	-9.305625	-13.256250	23.511250
38.979000	-176.290009	1005.280029	-11.567500	-16.852501	28.223125
145.790009	-196.054001	1042.672974	-6.090000	-20.934376	24.885000
161.772003	-158.904999	957.028992	11.090625	-8.653750	30.051874
15.311000	-126.391998	971.364014	24.381874	1.526875	32.016251
150.059998	-82.349998	1069.756958	29.229376	-5.976250	28.402500
142.923004	-56.669003	989.054016	41.610626	9.515625	16.047501
79.910004	87.535004	1048.589966	39.252499	20.715626	22.268749
61.854000	116.632004	1045.174072	7.883750	19.083750	24.526251
-15.982000	77.897003	932.934021	-11.746875	13.378750	29.141874
43.798000	125.172005	1000.095032	-2.296875	5.560625	36.036877
99.369003	121.634003	1000.522034	-2.563750	-1.404375	35.113750
78.385002	124.867004	998.570007	-10.486875	-10.618125	33.110001
141.397995	122.854004	1024.921997	-13.943125	-8.964375	22.378124
111.020004	150.425995	1008.452026	-26.691875	-9.485000	11.974375
88.145004	118.828003	995.703003	-28.813749	-9.471875	8.693125
115.778000	125.721001	1018.028992	-18.208750	-12.915000	7.214375
88.023003	112.911003	1026.081055	-5.783750	-1.623125	5.827500
71.858002	76.860001	1000.095032	5.066250	0.695625	7.328125
76.189003	64.476997	1033.889038	14.266875	4.278750	2.668750
39.223000	68.014999	1011.075012	15.115625	4.821250	3.228750
53.070000	41.053001	1007.109985	10.066875	1.015000	0.546875
73.383003	39.650002	1010.343018	7.953750	3.276875	-3.631250
58.926003	43.493000	999.119019	6.960625	2.686250	-3.806250
80.459000	59.048000	1003.145020	4.781875	2.117500	-5.232500
73.139000	92.354004	1012.905029	3.259375	-0.463750	-4.746875
103.944000	137.860001	1024.312012	8.850625	2.629375	-5.136250
108.640999	202.947006	1006.622009	14.533750	4.655000	-4.138750
115.107002	229.115997	985.699036	8.491875	3.163125	-3.736250
85.034004	219.294998	993.751038	-4.235000	-9.353750	-4.611250
145.912003	151.097000	930.859985	-0.284375	-5.901875	-15.798125
138.775009	97.294998	975.390015	7.603750	-6.002500	-19.844999
118.461998	103.516998	973.437988	13.549375	-8.785000	-28.533751
74.054001	39.161999	954.283997	20.698126	-4.939375	-35.244999
115.412003	44.103001	1092.144043	17.998751	-10.036250	-35.866249
98.820000	16.409000	1043.343994	13.326250	-3.749375	-41.011250
78.812004	-33.916000	1017.785034	11.431875	0.166250	-43.181252
76.250000	26.596001	1090.802002	9.209375	2.436875	-43.588123
53.253002	-19.153999	998.447998	15.487500	13.046250	-42.468124
58.376999	-24.948999	997.106018	5.919375	3.810625	-36.194374
97.294998	-35.075001	988.749023	-9.393125	-6.050625	-20.580000
42.151001	-69.174004	948.122986	-7.275625	-5.687500	-11.637500
87.351997	-102.846001	1018.151001	-16.493750	-9.200625	-14.577500
26.108000	-80.581001	981.673035	-10.250625	-6.531875	-10.469375
-11.529000	-88.876999	1002.778992	1.378125	-0.035000	-15.544375
72.041000	-15.738000	1040.598999	-0.166250	0.223125	-12.035625
25.620001	-42.395000	988.017029	3.924375	2.432500	-3.990000
43.859001	-58.681999	972.583984	4.961250	-1.785000	-2.896250
70.150002	-39.955002	996.923035	7.953750	-2.371250	0.875000
62.037003	-56.973999	1006.927002	5.468750	0.896875	4.698750
21.777000	-25.498001	981.551025	-2.883125	-5.801250	2.047500
100.528000	-45.018002	984.234985	-6.405000	-8.553125	2.638125
42.882999	13.176001	1006.317017	-7.319375	-5.757500	0.341250
79.117004	6.283000	1009.733032	-13.588750	-8.583750	-2.331875
103.028999	-11.590000	1016.931030	-10.263750	-8.023750	-0.336875
81.313004	8.235000	1035.963013	-6.733125	-3.395000	1.089375
84.485001	0.305000	993.751038	-4.370625	-2.380000	-0.660625
107.420998	-10.187000	1010.770020	-0.481250	2.257500	-2.240000
83.264999	26.535000	1009.671997	0.371875	2.861250	-0.787500
87.413002	-4.758000	997.289001	0.875000	0.494375	1.150625
101.992004	-47.640999	997.228027	2.861250	0.100625	2.296875
61.427002	-50.507999	1006.317017	5.744375	1.575000	1.627500
46.482002	-90.462997	1015.345032	7.214375	0.875000	2.861250
71.187004	-169.214005	987.895020	10.618125	-0.140000	6.383125
26.230000	-155.184006	986.614014	13.225625	1.391250	6.947500
32.635002	-131.820999	993.872986	6.260625	-4.746875	5.591250
71.187004	-138.165009	975.877991	2.515625	-5.884375	7.739375
80.215004	-137.615997	936.289001	6.803125	-6.055000	11.834375
157.014008	-103.028999	1024.677979	17.123751	0.406875	15.395625
103.395004	-59.779999	972.523010	33.849377	6.881875	27.496876
32.635002	7.259000	1019.554016	37.117500	7.656250	29.400000
137.250000	98.332001	1085.250977	17.801874	7.568750	23.222500
107.848000	60.817001	995.093018	-14.516250	-12.726875	31.430000
146.705002	20.923000	1009.671997	-25.830000	-9.034375	26.674376
253.638000	21.106001	1018.151001	-14.866250	3.421250	33.468750
192.760010	98.332001	1010.465027	-14.866250	3.421250	38.368752
135.847000	166.591003	1011.624023	-15.780625	4.011875	38.368752
135.847000	166.591003	1011.624023	-17.806250	-4.020625	40.420624
216.488998	152.012009	1002.901001	-7.651875	5.700625	30.572500
111.203003	237.350998	986.614014	-2.073750	13.125000	19.674376
84.973000	233.996002	1019.859009	-3.180625	8.933750	15.863750
188.856003	180.499008	965.934998	-2.572500	3.692500	8.706250
93.452003	160.307999	988.017029	2.948750	9.257500	7.971250
114.985001	133.041000	981.794983	4.983125	4.287500	1.863750
157.257996	201.727005	984.845032	12.123125	9.209375	-3.688125
50.874001	177.815002	982.588013	13.763750	3.416875	5.333125
111.141998	147.742004	1014.429993	14.135625	-0.844375	5.236875
85.460999	168.542999	982.466003	17.093124	10.005625	2.047500
64.355003	109.495003	988.992981	4.309375	-2.568125	6.636875
87.413002	111.020004	997.044983	-3.285625	-5.442500	-1.203125
59.048000	116.570999	982.588013	-7.367500	-0.616875	-4.983125
63.135002	79.848999	995.153992	-13.960625	-3.097500	-5.499375
101.443001	87.901001	997.777039	-15.365000	-4.926250	-6.855625
62.037003	74.542000	1019.981018	-14.455000	-4.830000	-5.880000
107.604004	109.861000	1019.432007	-10.421250	-3.981250	-9.030000
102.601997	151.889999	1031.510010	-2.808750	3.342500	-9.594375
109.617004	175.863007	1016.504028	-1.680000	5.315625	-11.751250
102.785004	190.563995	992.531006	-4.733750	7.385000	-14.971250
97.173004	184.951996	996.069031	-10.491250	8.487500	-18.440624
137.188995	126.819000	1021.200989	-15.929375	3.399375	-21.380625
127.185005	88.389000	951.539001	-5.565000	2.152500	-20.238750
75.639999	158.173004	970.449036	11.392500	8.544375	-25.103750
142.557007	144.082001	945.439026	11.790625	5.665625	-26.459999
139.445999	57.522999	854.244019	18.816875	-8.255625	-22.732500
125.416000	114.131004	1060.484985	14.266875	-18.169374	-17.578751
81.923004	113.826004	1046.515991	-1.063125	-22.281876	-25.007500
86.803001	75.822998	1034.864990	1.198750	-29.251249	-34.803123
175.923996	15.860001	1034.193970	10.657500	-21.634375	-35.625626
97.234001	29.768000	998.936035	17.036249	-9.362500	-39.300625
215.757004	-38.125000	1049.260986	16.782499	-5.801250	-40.398750
106.384003	-0.549000	1041.453003	5.718125	1.286250	-34.978127
94.245003	-62.220001	1020.468994	-9.021250	-5.635000	-30.555000
124.928001	-102.175003	1061.521973	-6.759375	-3.167500	-27.094376
131.576996	-136.884003	1001.619995	-5.985000	6.680625	-22.938126
50.020000	-120.658005	992.653015	-0.682500	7.892500	-20.518749
106.627998	-211.182007	982.161011	0.853125	10.749375	-24.233126
120.658005	-230.214005	946.049011	2.533125	11.838750	-15.216250
6.283000	-170.800003	985.333008	8.470000	8.207500	-7.761250
82.837997	-140.178009	963.494995	6.160000	2.279375	-0.625625
31.110001	-98.881004	958.676025	3.753750	-2.117500	7.201250
46.848000	-60.207001	982.893005	-3.228750	-2.393125	4.458125
97.904999	-36.417000	996.252014	-9.463125	-5.451250	6.387500
39.833000	-43.980999	995.520020	-8.815625	-5.871250	9.371250
94.611000	-57.584000	1081.957031	4.182500	-3.613750	13.313125
80.886002	-89.304001	1046.271973	21.647499	1.483125	12.040000
36.478001	-76.250000	1005.950989	18.672501	7.166250	7.774375
118.645004	-99.979004	973.804016	4.379375	-0.581875	6.352500
122.670998	-106.932999	903.958984	-2.222500	-2.353750	8.080625
124.440002	-49.043999	949.770020	-13.098750	-2.288125	11.711875
132.065002	-7.076000	995.520020	-10.946250	1.076250	17.815001
159.210007	-114.070000	936.228027	2.012500	8.443750	27.326250
128.343994	-32.513000	1054.263062	6.278125	5.775000	32.536877
166.102997	32.635002	1122.583008	13.111875	10.850000	35.166248
141.581009	-28.426001	982.710022	1.185625	9.388750	39.357498
100.100998	151.707001	1136.186035	-12.481875	4.112500	27.295626
90.341003	183.731995	1022.726013	-6.492500	17.521875	16.918125
37.514999	191.600998	964.837036	-1.203125	13.177500	18.549999
128.710007	159.332001	1062.681030	15.102500	15.303750	25.514999
83.326004	147.070999	984.418030	20.299999	7.153125	24.491249
75.701004	315.858002	1018.882996	23.953125	32.025002	6.378750
63.867001	123.769005	907.679993	0.533750	16.703751	4.462500
76.982002	172.447006	908.168030	-39.466873	-18.554375	4.703125
113.154999	163.419006	1019.005005	-43.653751	-18.388124	3.320625
93.940002	181.962997	1029.802002	-26.250000	-3.666250	-6.768125
10.553000	179.584000	1006.317017	-10.434375	14.109375	-6.916875
10.004000	148.839996	970.876038	-17.303125	0.074375	-0.083125
21.350000	173.910995	937.325989	-8.443750	0.608125	4.204375
13.725000	134.749008	950.502014	8.903125	2.808750	6.986875
59.414001	187.087006	993.202026	7.809375	-6.304375	5.521250
24.034000	160.979004	1027.789062	8.400000	-3.403750	4.961250
50.386002	184.525009	1015.955017	19.333124	4.891250	3.469375
59.109001	268.095001	1073.355957	27.133751	23.244375	1.308125
-0.610000	371.489990	1026.141968	12.131875	29.360624	-3.456250
17.080000	327.082001	899.505981	0.341250	16.410625	-6.291250
86.681000	315.553009	967.887024	-5.831875	-2.401875	-2.887500
66.856003	139.018997	823.134033	-4.405625	-23.712500	-1.745625
88.145004	97.904999	859.062988	19.236876	-23.541876	-13.440000
70.028000	123.769005	1041.391968	18.532499	-0.883750	-15.990625
45.323002	33.000999	1024.433960	11.585000	-1.050000	-22.789375
140.178009	63.440002	1220.609985	16.318750	-13.860000	-36.850624
117.913002	-87.778999	1021.505981	27.754999	-19.709375	-42.525002
52.948002	39.711002	1114.348022	17.705626	-20.523125	-32.685623
66.368004	36.112000	1120.753052	-5.271875	-20.094376	-34.155624
44.834999	-34.342999	951.478027	-15.981875	-13.475000	-30.616249
-32.208000	26.108000	983.929993	-20.037500	-7.275625	-11.016250
2.745000	-115.412003	973.010986	-8.019375	2.139375	-13.650000
141.886002	-153.171005	1000.765991	13.846875	6.238750	-11.466875
-7.137000	-47.458000	1019.127014	11.077500	-5.582500	-6.960625
79.726997	-93.818001	996.923035	6.330625	5.385625	-13.260625
64.903999	-106.445000	1036.084961	-1.767500	2.261875	-7.140000
16.226000	-87.778999	969.168030	-9.156875	-1.439375	-3.854375
33.793999	-83.875000	997.716003	-12.289375	-3.303125	-1.951250
10.065001	-81.313004	1001.192993	-19.849375	-5.726875	-2.008125
51.179001	-72.041000	971.729980	-24.329374	-11.554375	-3.377500
84.362999	-49.959000	1023.031006	-16.489374	-3.963750	-3.145625
66.734001	-72.163002	974.536011	-8.798125	-2.471875	1.365000
29.829000	-73.200005	1015.893982	-5.753125	-1.391250	-0.888125
37.393002	-97.904999	1019.249023	-11.860625	-4.926250	0.695625
6.466000	-141.703003	980.697021	-11.860625	-8.566250	6.960625
101.625999	-238.510010	1000.705017	-12.950000	-8.566250	6.960625
101.625999	-238.510010	940.254028	2.813125	4.300625	-0.533750
95.831001	-164.089996	940.254028	11.475625	6.759375	0.590625
63.562000	-84.240997	987.590027	1.964375	-8.763125	6.759375
102.418999	-51.728001	981.184998	11.270000	4.449375	10.836875
129.686005	-59.963001	978.806030	18.834375	6.733125	18.873751
38.186001	58.255001	1074.026978	16.100000	6.195000	14.297500
138.897003	6.405000	1044.563965	15.413125	9.401875	12.258750
87.718002	56.913002	1049.993042	12.031250	15.137500	13.601875
26.840000	66.306999	990.030029	14.984375	27.173124	8.723750
150.425995	86.193001	1018.578003	17.184999	16.191875	19.459999
75.822998	91.805000	1050.786011	27.457500	18.029375	27.203751
-20.374001	103.211998	995.703003	27.173124	21.490000	32.506248
0.671000	94.245003	1045.844971	11.431875	-5.455625	44.511250
-33.549999	91.012001	1048.346069	13.278125	10.281250	32.952499
-4.148000	72.711998	1024.860962	-9.056250	3.928750	29.076250
115.534004	65.941002	996.130005	-27.820625	-2.371250	16.870001
65.391998	20.252001	974.353027	-21.660625	3.298750	9.428125
30.378000	109.556000	876.447998	-31.635626	-23.747499	7.113750
121.756004	149.755005	1008.635010	-10.640000	-2.104375	-1.421875
64.843002	84.180000	991.738037	-18.873751	1.588125	-3.626875
-114.131004	310.062988	979.233032	-24.093124	13.868750	-14.306250
-24.644001	172.874008	989.481018	-8.330000	10.565625	-14.945000
14.457000	161.833008	970.754028	-0.608125	4.536875	-7.096250
167.262009	88.999001	1028.459961	10.228750	3.154375	-2.493750
71.370003	167.628006	1003.023010	4.602500	-11.436250	11.042500
67.954002	129.625000	1038.890991	2.594375	-8.793750	8.636250
29.829000	159.210007	994.848999	-6.286875	-2.673125	5.162500
8.357000	127.612000	953.369019	1.636250	9.078125	-2.463125
8.296000	181.109009	973.742981	5.744375	7.275625	-1.373750
-3.965000	228.750000	1000.033997	-3.985625	-1.531250	2.301250
50.081001	219.539001	961.908997	1.938125	-3.806250	-0.297500
111.264000	211.852997	1036.268066	5.919375	0.656250	-1.395625
30.743999	245.525009	971.851990	-14.284375	-11.466875	2.633750
55.327000	225.089996	1026.812988	-29.903126	5.166875	-11.742500
22.691999	134.871002	917.684021	-25.453751	10.666250	-17.836876
-62.403000	310.916992	896.273010	15.693125	12.534375	-31.600624
91.622002	79.543999	1050.907959	27.820625	5.451250	-38.998749
87.961998	103.395004	995.215027	28.358749	-10.399375	-46.584999
23.424000	136.152008	1008.940002	40.604374	-5.639375	-55.072498
180.925995	136.884003	1095.987061	18.353125	-2.703750	-58.673126
77.897003	173.667007	1111.786011	-13.566875	-24.031876	-31.430000
100.345001	3.172000	1004.914001	-24.154375	-33.836250	-27.295626
170.617004	-45.750000	1020.652039	-19.661249	-17.517500	-31.215626
56.913002	-73.383003	1024.617065	-24.998751	-11.396875	-19.280624
4.819000	-156.343002	938.119019	-27.768126	-25.121250	-19.766251
178.425003	-215.635010	979.294006	-6.400625	-3.635625	-25.580626
141.093002	-222.955002	959.895996	19.009375	2.506875	-10.880625
-45.628002	-244.671005	940.986023	34.636875	0.271250	-19.118750
179.279007	-189.404999	1052.067017	45.955002	4.322500	-14.940625
-42.761002	-110.410004	1018.455994	31.504375	4.650625	-15.758750
105.591003	-147.070999	968.557983	13.846875	8.141875	-17.355625
70.515999	-69.417999	1064.633057	10.565625	1.334375	-10.259375
42.639000	-31.903000	990.335022	8.395625	2.266250	-7.385000
68.502998	-24.339001	1033.949951	-2.051875	-5.398750	3.570000
46.177002	-81.434998	954.650024	-11.519375	-5.906250	7.997500
56.852001	-81.251999	998.447998	-18.878124	-12.530000	5.407500
112.911003	-110.531998	1013.697998	-16.200624	-6.886250	0.231875
49.897999	-69.967003	998.570007	-13.728750	-9.786875	-3.425625
100.710999	-121.756004	1034.133057	-2.423750	-7.210000	-5.346250
105.957001	-149.999008	1079.333984	13.510000	-4.900000	2.808750
150.059998	-224.968002	1038.525024	27.186251	1.658125	5.005000
80.093002	-133.102005	1010.708984	37.380001	21.721874	7.993125
56.181000	-158.660995	939.583008	18.541250	2.756250	10.880625
143.777008	-142.251999	955.626038	0.818125	-22.465626	10.644375
62.586002	-20.740000	1015.406006	-3.985625	-4.563125	14.385000
199.591995	-69.540001	933.056030	-15.115625	-5.862500	20.295626
121.389999	24.278000	1015.467041	6.584375	17.342501	13.431250
210.206009	57.584000	1030.167969	5.040000	5.748750	21.332500
153.781006	190.747009	1045.296021	6.142500	9.183125	39.055626
6.893000	168.787003	952.210022	20.339375	23.861250	36.268749
165.737000	210.449997	1061.765991	11.873750	15.592500	38.884998
84.180000	254.736008	1038.769043	8.885625	20.278126	37.581249
46.177002	191.296005	966.179016	4.935000	12.105625	32.099377
161.100998	202.031998	979.171997	-0.503125	7.253750	28.293125
-16.531000	179.522995	952.270996	-1.058750	-15.614375	36.898750
55.265999	58.865002	804.406982	24.202499	-30.957500	39.313751
149.815994	312.381012	1062.619995	44.200626	5.341875	13.960625
140.604996	332.266998	1069.513062	37.235626	26.748751	-4.799375
136.274002	447.313019	1269.044067	5.481875	16.270624	-10.136875
59.292000	327.752991	941.718018	-3.854375	12.954375	0.205625
132.858002	331.046997	967.277039	-4.987500	3.272500	12.700625
109.738998	369.355011	934.398010	-3.075625	9.003750	6.335000
84.240997	315.919006	924.577026	-21.236250	-1.990625	13.803125
95.526001	263.703003	932.872986	-37.134998	-8.185625	5.744375
72.651001	277.794006	935.801025	-42.166248	-3.106250	-5.534375
63.257000	236.497009	957.151001	-44.852501	-11.121250	0.560000
36.660999	194.772995	978.379028	-25.921875	-7.205625	-1.885625
96.380005	188.917007	1038.952026	4.239375	2.769375	-2.366875
61.487999	249.124008	1008.085999	33.153751	19.740000	4.195625
55.570999	329.705017	991.494019	33.048752	17.745001	-6.553750
128.466003	342.820007	1036.634033	-5.333125	1.233750	-14.192500
71.796997	291.580017	944.768005	-30.498125	-2.423750	-13.790000
82.594002	152.500000	958.309998	-29.964375	5.551875	-20.995625
73.993004	236.375000	1007.293030	-21.559999	14.428750	-29.273125
54.167999	162.199005	937.875000	-10.644375	11.672500	-35.087502
104.005005	133.223999	958.249023	-7.459375	-6.151250	-40.236874
161.283997	75.701004	991.372009	-10.836875	-18.436251	-46.073124
98.087997	63.989002	908.411987	3.504375	-16.170000	-46.860626
142.374008	-18.971001	1035.597046	3.491250	-28.428749	-40.814377
167.201004	33.000999	1059.143066	-1.426250	-31.758125	-37.393124
107.360001	-109.433998	1017.906982	20.549376	-10.889375	-50.456875
152.622009	-36.904999	1077.260010	20.549376	-10.889375	-50.456875
