AccX[mg]	AccY[mg]	AccZ[mg]	GyrX[dps]	GyrY[dps]	GyrZ[dps]	
133.589996	-77.530998	1035.353027	0.883750	-2.226875	-3.088750
27.450001	-41.785000	977.647034	0.883750	-2.226875	0.000000
-35.868000	-16.348000	966.423035	7.096250	28.844376	57.391251
-2.806000	25.498001	1013.088013	34.803123	16.751875	62.028751
-83.447998	-6.588000	1046.515991	-0.070000	-5.446875	41.352501
-43.737000	91.072998	975.085022	-5.442500	-30.279375	25.112499
11.895000	52.033001	987.468018	33.958752	-80.893753	3.583125
74.847000	102.601997	1364.692017	-0.175000	18.134375	-28.857500
50.935001	50.874001	972.950012	-6.041875	10.325000	-36.395626
58.132999	47.702000	1032.364014	-3.272500	-5.993750	-37.939999
50.935001	-13.664001	1025.104980	-7.214375	2.423750	-30.126249
27.877001	55.570999	976.000000	-1.820000	-2.139375	-25.672501
20.434999	22.204000	1040.477051	-1.509375	-5.005000	-22.758751
22.936001	-11.102000	994.056030	-3.014375	-1.942500	-15.596875
56.669003	69.723000	993.690002	-1.785000	-1.566250	-16.205000
48.983002	90.097000	1000.705017	-1.933750	-0.424375	-17.955000
44.164001	31.232000	1017.053040	-0.035000	-1.203125	-3.403750
25.375999	-43.675999	964.715027	1.872500	0.420000	13.111875
53.192001	74.907997	995.276001	1.347500	2.200625	21.380625
87.901001	57.827999	1040.660034	1.828750	2.375625	31.902500
45.811001	22.448000	1036.511963	0.424375	0.835625	15.780625
21.533001	172.874008	1175.469971	-6.641250	4.681250	7.590625
34.526001	61.366001	1285.758057	-59.644375	18.383751	71.973122
112.849998	-35.868000	933.726990	-4.528125	6.116250	70.629997
29.707001	174.033005	948.549988	34.785625	-1.618750	54.503750
-44.957001	-34.587002	984.845032	20.881874	37.651249	25.191250
71.918999	53.741001	1009.733032	-44.117500	2.314375	-17.093124
112.056999	-88.328003	968.497009	-56.035000	3.342500	-29.693125
-101.565002	-116.327003	1478.274048	-9.310000	27.667500	6.247500
145.423996	-277.733002	1216.828003	-4.095000	103.630623	24.430000
-193.003998	-20.801001	900.177002	18.414375	48.055000	22.588125
-132.003998	100.772003	836.065979	29.938126	-35.419998	3.399375
-301.705994	108.519005	1055.056030	18.703125	-82.779373	-29.793751
-16.775000	-52.399002	971.424988	-0.266875	58.222500	-27.842501
-180.011002	107.787003	1241.289062	-3.386250	18.458124	-17.110624
57.706001	9.028000	920.856018	-12.884375	-14.914375	-94.889374
-709.613037	87.840004	1196.453979	4.515000	-42.341251	-38.136875
-110.715004	-13.359000	651.236023	-0.533750	44.900623	-8.710625
-182.572998	-71.918999	945.622009	-13.680625	2.266250	0.695625
21.899000	-63.500999	942.572021	-6.566875	-47.810001	-0.503125
-49.715000	-73.261002	1228.967041	-1.295000	-60.698750	0.306250
433.893005	-302.498993	1998.604004	-14.914375	-21.840000	-19.547501
179.766998	116.144005	848.815002	11.353125	-8.238125	13.846875
-61.792999	-135.542007	917.135010	7.210000	-24.158751	14.490000
-121.939003	116.327003	855.647034	-15.225000	-18.156250	-10.093125
158.844009	-75.457001	1126.364990	-4.580625	-30.572500	9.502500
228.567001	60.268002	1088.789062	-18.475624	-39.401249	22.023750
248.209000	-39.101002	914.877991	-19.809999	-21.490000	41.221249
392.046997	-159.880997	1098.000000	-12.136250	-0.831250	62.164375
68.747002	-3.904000	1061.765991	-32.357498	44.021252	52.779999
134.626999	-73.749001	934.764038	-19.897499	34.221249	52.097500
17.141001	-116.327003	990.579041	12.118750	33.560623	64.688751
62.220001	-101.138000	891.027039	26.547501	34.426876	50.675625
18.483000	-141.093002	985.515991	11.011875	18.274376	28.367500
14.823000	-43.310001	1046.394043	80.600624	-13.536250	61.468750
176.839005	-69.723000	911.523010	38.508751	-33.376877	38.171875
24.034000	-47.031002	1289.479004	35.818127	-61.031250	21.039375
158.112000	-34.770000	968.497009	66.364372	42.595001	65.756248
80.520004	-72.406998	946.536987	24.972500	43.636250	28.796249
-13.420000	127.489998	1016.687012	10.963750	11.029375	-17.268126
39.345001	65.514000	1094.828003	23.764999	40.827499	6.995625
-28.121000	89.853004	847.656006	10.714375	56.752499	4.550000
-89.792000	121.877998	1033.828003	-10.237500	12.197500	9.883125
-27.999001	100.162003	938.057983	3.876250	-5.280625	10.508750
-14.884000	226.432007	1045.052002	0.389375	-3.036250	3.587500
-11.407001	149.328003	958.859009	-2.021250	-1.820000	12.582500
-77.714005	-2.135000	1040.598999	-10.718750	3.666250	16.594376
-25.559000	95.343002	1007.231995	-8.168125	6.833750	-2.870000
-9.394000	45.139999	952.270996	26.893126	-5.355000	-12.582500
-22.570000	74.664001	1013.575989	26.831875	-12.595625	-18.611250
30.561001	50.935001	1026.508057	7.498750	-6.466250	-26.626249
16.714001	60.207001	918.294006	-21.936251	-22.098125	-16.922501
-16.592001	18.483000	951.843994	-43.461250	-33.779373	-27.155624
-7.137000	41.418999	1007.109985	-27.868750	28.603750	-18.606874
-66.794998	86.375999	1160.098022	-13.610625	49.805000	-23.515625
-23.302000	69.784004	1140.089966	4.068750	70.463753	-15.710625
-108.763000	105.347000	1123.131958	12.289375	30.834999	-17.478125
-1.220000	-68.564003	1162.354980	10.605000	12.302500	-20.514376
-21.594000	-104.554001	993.934021	23.082500	-2.712500	-35.262501
-15.921000	2.684000	883.280029	29.701876	-21.481251	-37.743126
30.256001	-51.056999	827.587036	15.220625	14.126875	-10.303125
-100.223000	-49.776001	875.228027	-7.966875	-5.306875	-4.729375
-147.742004	24.095001	923.845032	-4.755625	-29.146250	-15.141875
-19.825001	15.921000	1001.376038	-3.898125	-19.446875	-19.298124
12.810000	-17.934000	1101.598999	-9.445625	39.038124	-12.486250
-33.793999	-4.514000	1078.541016	-14.091875	38.228748	-10.963750
-48.678001	29.341000	1060.180054	-14.494375	9.988125	-7.901250
-89.609001	15.616000	962.824036	-18.353125	-1.295000	-2.419375
-106.627998	-0.976000	1015.833008	-9.117500	17.552500	0.065625
-158.477997	34.098999	993.140991	1.032500	15.986250	-0.258125
-172.264008	6.893000	1003.572021	4.484375	-3.815000	-4.248125
-186.294006	36.966000	1007.658997	14.805000	-14.035000	-18.646250
-50.569000	97.599998	1065.487061	9.568125	-26.455626	-11.760000
-100.894005	69.112999	1037.182983	2.791250	-21.529375	-3.158750
-81.434998	85.155998	1018.333984	-6.028750	-17.683750	-2.218125
-40.504002	63.013000	1045.906006	-14.971250	-10.150000	4.388125
-80.825005	3.538000	1016.138000	-16.865625	-6.930000	9.786875
-98.454002	-7.747000	1002.351990	-11.326875	-10.535000	5.901875
-42.395000	-70.393997	966.971985	-10.661875	2.126250	-2.607500
-111.081001	-6.954000	1004.242981	-3.478125	4.103750	-12.534375
5.185000	-25.375999	940.497986	-5.123125	20.995625	-17.219999
-88.328003	39.711002	985.150024	9.975000	-18.248125	-16.003750
61.487999	-46.542999	1036.695068	-2.839375	-22.986250	-16.318750
-149.022995	22.997000	1108.431030	37.209373	45.373123	-15.229375
-216.977005	48.129002	910.546997	21.030624	45.005627	-3.880625
-102.175003	39.466999	975.023987	-8.662500	10.456250	2.165625
-100.284004	-31.781000	986.858032	-5.871250	-6.453125	-1.487500
-238.998001	18.726999	969.046021	-3.583125	-63.857498	36.850624
86.253998	30.378000	1060.667969	0.293125	-100.515625	42.376251
112.849998	38.491001	926.163025	-1.531250	-96.363747	23.813126
172.507996	26.901001	1013.088013	-8.675625	-62.190624	21.700001
148.108002	14.701000	997.716003	-2.743125	-1.483125	26.608749
157.197006	-52.399002	1049.626953	-3.990000	6.072500	29.373751
262.787994	21.960001	1132.098999	4.480000	-19.048750	28.113750
221.857010	-83.631004	1128.134033	-10.723125	-7.358750	17.749374
197.822998	-41.358002	1079.578003	-15.566250	17.058125	4.195625
206.363007	-30.500000	1016.015991	-3.508750	25.033751	1.242500
179.156998	-4.270000	1044.320068	10.990000	38.110626	-0.721875
152.682999	6.588000	986.674988	-0.918750	40.210625	3.718750
120.169998	-25.864000	1036.084961	-14.490000	34.755001	5.639375
41.968002	-58.987000	1047.431030	-11.803750	52.941875	6.160000
-5.978000	-1.342000	1045.784058	6.873125	26.823126	3.399375
52.948002	-19.153999	1041.514038	10.167500	35.568748	16.283751
30.195000	-40.443001	1037.609985	2.922500	40.923752	20.483749
-20.252001	26.535000	900.116028	7.573125	32.873749	26.473125
-71.918999	-31.537001	933.726990	17.215626	9.690625	24.360001
-66.429001	28.548000	932.324036	19.744375	10.587500	13.619375
-109.128998	59.292000	932.324036	19.009375	8.583750	10.460625
-90.097000	6.527000	1053.225952	14.621250	4.475625	9.708125
-94.183998	69.662003	981.184998	1.461250	4.313750	-5.875625
-62.464001	44.713001	1032.181030	-0.091875	0.923125	2.480625
-113.704002	36.295002	979.355042	1.439375	-11.462500	2.642500
-107.055000	27.023001	1006.866028	2.226875	-14.595000	-3.500000
-47.702000	37.942001	1024.556030	-5.775000	-12.302500	-5.691875
-53.862999	36.844002	1085.312012	3.753750	-35.778751	-13.120625
-40.015999	35.624001	1090.984985	0.358750	-29.023750	-8.920625
-2.989000	52.216000	964.531982	-9.843750	-16.620625	-3.250625
-19.764000	80.886002	992.226013	-6.641250	-19.346251	-1.378125
-5.124000	71.308998	1023.458008	-7.170625	5.188750	2.353750
-71.796997	-23.973000	979.781982	-3.635625	4.523750	-1.176875
0.732000	32.513000	978.806030	0.826875	-9.371250	-5.258750
-26.779001	0.000000	998.997009	5.661250	-5.350625	-2.165625
-38.491001	-4.758000	1051.091064	10.815000	-5.061875	-18.003124
-27.694000	94.488998	1077.504028	15.596875	-6.330625	-22.535625
37.758999	62.464001	937.692017	2.362500	-2.296875	-14.691250
-9.516000	25.193001	1044.320068	-5.258750	-2.590000	-16.152500
17.323999	37.332001	1042.124023	-4.799375	-14.735000	-10.696875
-1.220000	18.056000	1024.800049	6.098750	-7.411250	-9.878750
33.062000	-25.986000	1027.849976	-0.905625	-4.353125	-2.528750
19.520000	10.675000	1032.669067	-0.280000	8.736875	-9.638125
15.372000	36.783001	971.729980	2.721250	3.163125	-13.671875
23.485001	21.106001	1017.846008	6.418125	-4.620000	-18.265625
-2.013000	132.431000	1024.006958	1.159375	0.616875	-7.437500
28.670000	34.160000	977.463989	2.196250	21.078751	-1.955625
13.664001	35.014000	1057.922974	5.053125	14.665000	-3.924375
-16.836000	92.354004	1030.961060	3.635625	3.727500	1.185625
-11.163000	63.867001	986.796997	0.971250	8.365000	0.131250
-35.929001	54.229000	997.166992	-6.208125	3.185000	-3.031875
14.213000	109.800003	1027.972046	-6.409375	-33.490623	-7.971250
116.937004	70.455002	1011.380005	-2.708125	-32.458126	6.120625
43.615002	13.237000	986.065002	7.708750	-12.551875	15.308125
83.264999	50.081001	989.968994	10.281250	-5.652500	19.573750
100.405998	27.755001	1002.108032	1.496250	-6.820625	22.106874
90.097000	50.447002	1028.459961	-6.689375	-13.216875	23.992500
82.289001	38.368999	991.067017	0.848750	-29.260000	22.211876
101.808998	57.522999	996.557007	11.536875	-39.668125	14.398125
118.340004	57.096001	1014.552002	5.740000	-13.877500	5.096875
144.875000	102.113998	994.117004	0.301875	1.207500	-6.641250
171.897995	50.325001	1032.181030	-5.849375	2.231250	-5.621875
128.893005	89.731003	1034.864990	-9.401875	-6.356875	-6.580000
184.158997	90.402000	990.822998	-2.104375	-1.592500	-1.981875
144.630997	108.397003	1047.796997	-8.378125	8.347500	7.415625
143.593994	68.502998	1038.402954	-11.116875	4.707500	5.302500
131.943008	37.088001	1013.270996	-9.638125	-2.353750	2.699375
150.731003	33.428001	1005.218994	-4.541250	-10.762500	-2.266250
190.869003	42.882999	991.981995	4.243750	-8.811250	-5.928125
158.356003	54.411999	1005.280029	-0.708750	-0.446250	-1.448125
176.229004	41.785000	1009.001038	-4.278750	14.743750	-1.898750
134.261002	74.298004	1024.921997	-5.595625	21.139999	-4.554375
112.544998	46.055000	1000.949036	-1.955625	6.807500	-3.937500
148.046997	30.134001	1031.265991	-1.102500	2.651250	-8.360625
141.947006	39.955002	1002.108032	-4.466875	3.920000	-8.531250
139.690002	26.108000	1026.447021	-6.125000	2.515625	-7.511875
131.210999	-2.379000	1042.245972	-6.615000	2.108750	-8.316875
119.987000	56.608002	1010.526001	-4.423125	1.649375	-8.050000
114.252998	-22.814001	943.304016	-6.908125	18.090626	-3.500000
79.238998	-46.116001	977.220032	-2.467500	-0.205625	-6.225625
88.511002	-63.074001	942.937988	-2.016875	-3.863125	-6.216875
106.689003	-34.282001	988.809998	2.034375	-2.454375	-4.585000
99.735001	-56.913002	992.897034	2.572500	10.596250	-1.837500
79.117004	-33.000999	965.325012	5.245625	5.013750	-1.701875
59.048000	-9.211000	1009.428040	7.332500	-2.765000	-0.643125
113.887001	-18.239000	1031.204956	2.191875	-7.783125	-1.645000
93.573997	13.054000	1025.898071	3.176250	-2.428125	-6.781250
104.676003	39.528000	1023.945984	0.039375	4.033750	-6.151250
106.689003	28.487000	1020.103027	-1.474375	-2.143750	-3.438750
98.392998	31.293001	1015.528015	-0.070000	7.245000	2.712500
78.202003	0.610000	995.642029	2.603125	3.465000	4.392500
59.170002	-71.431000	998.509033	1.176875	4.519375	2.708125
55.875999	-72.956001	1036.695068	0.415625	5.101250	2.559375
38.063999	-136.152008	990.273987	-1.671250	-3.255000	4.322500
39.894001	-159.149002	943.914001	-2.541875	-7.249375	4.379375
54.778000	25.010000	979.233032	6.615000	-5.661250	-1.382500
147.986008	97.356003	956.906982	16.283751	-16.747499	-1.505000
198.677002	194.651001	990.030029	24.889376	-8.036875	-4.169375
125.172005	22.326000	1029.192017	0.148750	9.830625	12.950000
45.262001	-152.012009	1029.436035	-3.543750	-1.391250	19.621876
42.212002	-331.412994	996.374023	3.780000	-11.532500	23.283751
44.285999	-254.003998	1063.901001	17.364374	-15.605625	28.109375
117.973999	-327.752991	1078.114014	11.326875	9.095625	45.775623
99.064003	-269.985992	1008.390991	13.711250	30.537500	45.176250
111.508003	-120.474998	1024.312012	16.493750	35.507500	50.579376
238.570999	-11.712000	1093.425049	10.889375	36.102501	53.501877
54.046001	126.270004	1155.218018	20.623751	80.946251	54.263126
137.494003	240.096008	1114.286987	-4.873750	-3.898125	47.573750
97.051003	189.953995	992.592041	-0.704375	-19.166876	48.908127
192.272003	267.424011	833.015991	-6.006875	-61.722500	32.970001
168.298996	355.080994	1033.218018	-2.388750	-62.251877	28.975624
249.551010	409.981018	952.454041	8.964375	-31.526251	14.380625
158.600006	506.117004	938.179993	-0.301875	-27.588751	22.631874
223.565002	275.720001	1059.082031	-9.813125	-30.441250	23.581249
189.587997	420.839020	1057.495972	1.675625	-34.024376	-0.437500
132.309006	347.639008	1184.437012	3.823750	10.605000	3.097500
134.322006	265.716003	1172.114990	-1.929375	-6.986875	4.589375
168.787003	206.423996	1232.505005	-3.128125	-1.806875	-6.133750
163.723999	121.695000	1125.937988	0.945000	3.202500	-10.438750
122.915001	24.034000	1299.727051	2.896250	32.532501	-9.218125
171.287994	70.272003	1352.675049	3.106250	41.947498	-12.757500
166.529999	75.334999	1392.935059	12.853750	24.836876	0.861875
161.650009	-0.610000	1398.546997	2.699375	86.008125	2.568125
191.417999	176.106995	1152.900024	8.575000	56.993126	-3.793125
142.740005	137.555008	1132.648071	0.568750	40.385624	0.778750
151.585007	150.669998	879.742004	-6.024375	95.506248	3.819375
-27.816000	97.356003	859.551025	-24.010000	73.955002	24.110624
-22.753000	-53.131001	673.195984	-31.010000	11.519375	16.957500
-35.868000	4.758000	666.913025	-21.840000	50.929375	-5.486250
-202.824997	68.685997	581.268982	-3.823750	47.630627	-21.354376
-287.493011	142.984009	510.020996	10.819375	19.389999	-23.695000
-273.645996	158.112000	575.169006	3.311875	21.533751	-14.061250
-309.636017	209.413010	587.918030	-3.101875	3.338125	-5.740000
-276.330017	210.694000	775.187988	-14.813750	-25.436251	-2.305625
-283.467010	314.149994	940.315002	-14.800625	-7.586250	-16.257500
-276.513000	373.442017	1012.966003	9.878750	-39.738125	-37.415001
-187.757996	368.440002	906.216003	12.836250	-41.085625	-52.211250
-93.330002	352.946014	979.781982	14.700000	7.581875	-53.322498
-136.335007	306.951996	834.053040	7.520625	-4.055625	-58.178749
-61.854000	217.343002	948.244995	30.200624	7.428750	-57.518124
-171.287994	116.205002	1076.833008	13.505625	-21.231874	-62.334999
61.610001	142.069000	1081.224976	18.151875	-58.471874	-67.195625
50.935001	-61.243999	1121.240967	18.484375	-40.726875	-65.817497
-4.575000	-77.714005	1103.734009	-1.645000	-29.006250	-62.479374
60.084999	-181.597000	1262.760986	8.102500	-7.280000	-46.396873
-26.047001	-337.269012	1111.847046	0.686875	8.277500	-20.571251
-94.976997	-329.583008	1004.426025	-6.667500	11.239375	-24.215626
-46.726002	-266.447998	898.530029	-20.330626	14.468125	-27.295626
-186.416000	-167.567001	813.801025	-25.361876	17.526251	-18.217501
-64.538002	-177.083008	656.116028	-33.547501	12.573750	-16.808750
-116.265999	-109.983002	695.338989	-20.645624	15.268750	-6.457500
-144.326004	-129.686005	666.608032	-2.926875	23.275000	-4.659375
-95.343002	-95.343002	453.901001	0.568750	12.197500	-15.662500
-132.675003	-30.195000	665.997986	7.341250	6.068125	-12.967500
-16.165001	138.470001	794.463989	-16.091249	-62.588749	-6.698125
-47.458000	-5.490000	799.283020	0.896875	-26.481874	-3.613750
-41.663002	-115.900002	1167.052002	-9.786875	-12.565000	29.146250
33.672001	-40.138000	913.963013	-0.835625	-110.840622	3.565625
211.852997	-8.784000	1116.056030	6.825000	-91.035004	9.756250
121.817001	6.344000	1362.984009	6.015625	-36.172501	-0.175000
72.468002	-1.281000	1243.851074	12.464375	-47.236874	-2.541875
61.305000	110.471001	1575.081055	37.769375	-11.169375	-3.653125
32.574001	-7.869000	1631.567017	34.523125	13.571250	11.480000
-11.407001	46.786999	1467.598999	18.046875	15.111250	13.531875
84.240997	11.529000	1124.352051	-25.598125	-25.913124	3.403750
57.035000	-64.903999	1046.271973	-30.874374	-15.929375	-4.401250
112.423004	-97.478004	1013.820007	-15.653750	-6.282500	-7.056875
90.707001	-207.400009	961.543030	3.097500	-16.555000	0.503125
144.630997	-251.503006	841.494995	34.085625	-6.251875	4.309375
132.796997	-247.233002	891.148987	45.456249	-2.056250	8.417500
168.177002	-249.490005	1022.543030	32.830002	-22.019375	14.691250
245.708008	-210.876999	1109.651001	19.687500	-5.521250	24.381874
167.628006	-125.843002	1142.530029	4.427500	-5.140625	37.891876
188.307007	-109.068001	1170.895020	-12.578125	34.321877	57.111252
151.097000	-142.862000	1164.307007	-15.535625	17.180626	60.392502
332.023010	-83.447998	1112.213013	-19.600000	17.250626	52.443127
260.165009	61.671001	1058.655029	-13.037500	16.913750	41.575626
248.087006	-5.917000	1069.696045	-17.233126	25.077499	32.742500
260.835999	288.652008	915.000000	-18.129999	21.013124	24.010000
150.669998	219.417007	874.434998	-28.118126	17.626875	36.610001
168.542999	378.748993	958.371033	-19.092501	-21.306250	28.765625
79.238998	419.863007	882.548035	3.233125	-15.106875	28.695625
85.339005	303.109009	958.249023	11.668125	-1.986250	15.636250
52.704002	206.302002	1116.360962	15.281875	8.168125	15.785000
65.148003	104.126999	1156.987061	28.708750	-16.721251	11.913125
111.386002	36.417000	1357.859985	34.278126	-2.760625	8.728125
105.103004	54.351002	1402.145996	-1.430625	-30.288124	6.584375
96.806999	-20.069000	1449.604004	2.848125	-42.135624	10.933125
57.278999	-29.463001	1480.104004	11.160625	-3.876250	5.963125
247.354996	90.767998	1359.263062	31.176250	-23.078125	-1.561875
270.169006	67.404999	1332.178955	16.065001	-0.415625	11.939375
341.661011	69.174004	1157.291992	-3.276875	47.306873	22.500626
229.665009	59.902000	1025.837036	-6.510000	80.928749	27.737499
143.533005	13.786000	938.241028	-15.907500	104.278122	22.601250
129.930008	84.362999	999.057983	-22.872499	88.462502	29.378124
112.728004	-43.798000	822.218994	-23.664375	104.566872	30.126249
-6.161000	-57.157001	782.080994	-24.670626	72.139374	16.069374
-89.364998	-3.599000	680.210999	-35.525002	57.640625	13.199375
-196.908005	-51.118000	550.647034	-15.850625	31.749374	-1.172500
-242.414001	-28.975000	505.933990	-2.458750	41.698124	-14.275625
-290.847992	106.627998	561.138977	-4.226250	30.638124	-12.840625
-334.950989	133.651001	654.713013	0.765625	18.475624	-6.724375
-271.205994	165.065994	724.497009	2.848125	3.373125	-10.128125
-321.104004	170.373001	942.450012	0.126875	1.386875	-26.276251
-188.673004	277.671997	881.083984	-1.863750	-37.323124	-51.493752
-268.522003	181.658005	1123.742065	0.468125	-34.011250	-65.695000
-217.709000	236.863007	1138.015991	17.163124	-20.973749	-62.313126
-90.707001	4.758000	1113.921021	17.924376	-32.125626	-52.578751
-39.466999	2.928000	1136.613037	11.742500	4.270000	-58.524376
-176.229004	-65.696999	1230.979980	10.832500	21.660625	-41.711250
89.914001	-9.943000	1086.531982	41.509998	-22.968750	-62.002499
-176.350998	-191.966995	1033.156982	40.333126	-3.451875	-58.992500
-140.848999	-290.360016	1007.171021	42.196877	-20.177500	-49.875000
-145.180008	-264.557007	1012.539001	17.049376	4.265625	-24.211250
-193.003998	-382.408997	835.760986	7.673750	-6.615000	-12.748750
-340.684998	-249.794998	903.348999	-6.816250	6.943125	-14.236250
-136.212997	-159.942001	752.679016	-7.035000	-4.851875	-26.678749
-236.863007	-181.962997	768.966003	5.595625	16.458750	-35.048126
-185.134995	-72.956001	686.067017	2.476250	11.348750	-33.464375
-69.845001	-90.158005	557.052002	1.828750	-16.957500	-27.763750
10.858000	-140.787994	814.960022	-18.038124	-5.035625	6.173125
-108.030998	-79.178001	596.702026	-6.728750	-59.167500	-5.652500
-37.271000	-132.796997	739.502991	10.740625	-9.323125	-1.019375
-106.079002	66.978004	927.444031	15.986250	-78.343124	-5.569375
223.320999	-14.030000	842.226990	18.768749	-82.858124	1.277500
42.272999	-24.827000	1231.223999	5.105625	-60.033749	2.795625
63.989002	51.605999	1209.203003	-17.574375	-59.285625	8.841875
221.735001	-111.813004	1201.395020	-24.552500	-64.312500	26.543125
-65.086998	12.566000	1411.723022	1.653750	-27.562500	5.070625
8.784000	77.348000	1625.161987	-9.292500	-12.910625	1.461250
-38.186001	48.861000	1601.432983	14.542500	-13.925625	1.513750
16.775000	9.577000	1302.716064	0.468125	13.606250	-0.931875
37.271000	2.013000	1150.093994	-14.748125	17.605000	-8.155000
77.530998	-68.381004	1008.208008	-15.308125	15.290625	-6.024375
56.913002	-76.189003	1045.234985	1.968750	14.507500	-12.884375
72.101997	-77.225998	965.752014	2.467500	0.682500	-4.099375
93.635002	-196.847000	954.345032	1.640625	-10.561250	4.191250
27.572001	-258.029999	989.603027	7.227500	-3.128125	5.674375
71.613998	-312.259003	1030.107056	5.013750	-0.962500	7.813750
142.190994	-368.683990	1025.227051	21.559999	-10.473750	31.430000
168.725998	-331.169006	945.866028	31.998751	16.288124	29.806875
127.673004	-174.703995	1028.520996	19.302500	22.080626	38.460625
159.697998	-167.201004	1016.320984	10.228750	18.764376	59.574375
125.660004	-128.160995	1097.572998	23.699375	21.503124	50.662498
100.710999	36.417000	1056.824951	6.440000	11.305000	45.150002
162.626007	157.380005	1031.327026	-4.116875	-30.900625	28.739374
113.947998	221.552002	1011.867981	-31.438749	-49.581875	37.471874
268.644012	199.775009	964.044006	-26.232500	-33.355000	30.585625
159.576004	306.220001	970.692993	0.660625	21.463751	28.577499
201.421997	358.497009	962.397034	-1.933750	45.976875	21.813749
59.658001	286.028992	993.690002	0.826875	-5.057500	16.161249
125.111000	274.927002	978.562012	2.625000	-3.561250	10.994375
99.612999	230.763000	1019.371033	14.280000	-20.391874	3.150000
138.287003	155.854996	1082.140015	14.166250	-15.058750	4.068750
101.320999	140.666000	1228.479004	10.399375	5.993750	2.611875
93.147003	53.375000	1345.598999	6.667500	-4.090625	7.538125
86.803001	5.856000	1435.940063	15.351875	0.835625	0.367500
110.348999	118.766998	1342.488037	15.763125	18.396875	-2.244375
-71.248001	166.164001	1265.384033	-12.665625	31.351250	19.009375
73.016998	24.888000	1217.926025	-13.886250	6.037500	25.593750
196.054001	25.864000	1197.552002	-6.081250	37.318748	18.764376
156.587006	65.086998	1292.102051	-16.677500	39.020626	24.460625
209.901001	-39.466999	1125.510986	-6.238750	68.586876	30.931250
81.739998	-54.778000	1095.926025	-8.417500	81.134377	35.966873
25.071001	-68.685997	984.906006	3.968125	82.490623	16.616249
-136.212997	67.099998	827.770020	15.793750	56.380627	11.112500
-108.092003	27.267000	603.229004	32.235001	52.294376	-12.394375
-174.887009	43.188000	496.174011	-28.205626	68.477501	19.328751
-241.316010	58.804001	510.936005	-28.966875	53.064377	11.143125
-320.738007	42.212002	483.912994	-22.811251	33.306873	2.003750
-346.541016	88.938004	585.173035	-16.546249	24.001249	-3.224375
-385.214996	100.650002	665.570984	-2.218125	-9.130625	-2.034375
-348.737000	155.611008	756.400024	6.195000	-10.010000	-4.353125
-348.798004	188.246002	907.802002	15.736875	-7.472500	-5.075000
-361.058990	266.082001	906.825989	16.616249	-35.209999	-22.260000
-241.682007	352.885010	823.682983	22.041250	-48.221249	-29.185625
-331.657013	270.108002	958.066040	26.035625	-29.478750	-41.536251
-240.096008	274.865997	1074.942017	19.066250	-23.253124	-53.099377
-94.245003	230.763000	1212.436035	12.998125	-6.601875	-55.230000
-155.550003	131.089005	1080.980957	12.053125	-10.766875	-52.320625
-75.091003	-27.450001	1274.838989	28.936251	-0.393750	-52.758125
-118.766998	-149.022995	1014.247009	23.935625	-4.655000	-50.596874
-155.854996	-131.516006	1064.389038	28.227501	-9.756250	-56.555626
-204.227997	-174.643005	1008.390991	19.166876	1.155000	-48.216873
-300.851990	-214.537003	875.411011	8.811250	-13.050625	-35.323750
-214.658997	-304.938995	943.364990	5.005000	-2.944375	-22.286249
-251.869003	-204.899002	886.817993	-2.695000	2.279375	-21.472500
-227.712997	-148.108002	822.523987	-7.035000	-11.685625	-11.318125
-108.823997	-59.658001	728.583984	-8.977500	-13.247500	-17.893749
-197.335007	1.220000	682.590027	-2.506875	-19.271875	-15.312500
-105.286003	-24.461000	567.604980	-2.786875	-10.351250	-8.334375
-76.372002	-7.686000	612.927979	3.294375	-19.341875	-14.695625
3.050000	123.159004	672.952026	-4.256875	-5.796875	0.463750
-126.209000	-42.151001	729.194031	-24.241875	1.535625	17.718750
-80.031998	145.912003	818.864014	-9.301250	-44.918125	15.085000
10.492001	-60.633999	1029.984985	6.571250	-30.585625	17.412500
130.540009	59.353001	1098.732056	-0.266875	-88.208748	24.325001
-122.487999	-113.704002	1249.280029	-48.544998	-110.123123	47.753124
283.101013	-162.016006	1523.901978	-48.334999	-105.209999	33.328751
66.856003	-77.897003	1670.363037	35.660625	-34.855625	-15.098125
86.437004	60.756001	1450.458008	57.316875	-17.867500	-40.665627
40.625999	56.973999	1542.567993	12.438125	14.616875	-22.421875
34.342999	40.138000	1285.208984	-17.583124	-7.673750	-10.320625
132.065002	1.891000	1174.982056	-19.451250	-14.826875	-6.466250
53.802002	-96.258003	1120.997070	-7.039375	15.999375	-4.143125
121.084999	-154.025009	977.463989	-4.580625	-13.706875	1.824375
120.169998	-298.290009	952.637024	4.589375	-2.961875	12.788125
137.005997	-379.664001	937.936035	8.719375	15.719375	11.935000
134.688004	-256.932007	989.114990	8.802500	-0.599375	6.483750
99.552002	-293.959015	858.575012	2.078125	-2.178750	19.888750
195.016998	-249.612000	890.112000	11.956875	8.115625	19.389999
141.581009	-45.567001	1061.034058	18.549999	16.852501	30.843750
126.148003	-105.529999	1083.055054	7.638750	27.343750	61.061874
194.895004	-128.527008	1110.078003	5.600000	14.625625	57.137501
141.824997	25.132000	1101.843018	6.461875	26.381250	41.825001
144.509003	193.126007	1011.014038	-14.844375	-21.179375	25.278749
154.940002	206.180008	983.625000	-14.280000	32.073124	35.988750
96.196999	261.873016	1041.514038	-12.792500	2.795625	12.967500
17.323999	350.627991	1030.350952	-13.536250	-48.492500	20.807501
136.639999	232.959000	964.898010	-4.781875	-18.650625	30.336250
165.919998	290.726013	965.385986	19.389999	-36.071877	16.699375
117.363998	219.050995	997.960022	31.010000	9.677500	15.255625
70.515999	230.214005	998.325989	21.581875	13.435625	4.685625
105.103004	255.163010	1099.890991	23.655624	-16.585625	-1.347500
167.628006	113.764999	1167.723022	9.012500	-41.562500	11.020625
104.554001	72.895004	1397.998047	0.835625	7.800625	7.590625
55.144001	121.146004	1315.648071	-2.296875	-4.711875	9.091250
165.675995	87.840004	1458.448975	-4.440625	55.461876	13.803125
63.013000	70.638000	1489.375977	-8.631875	37.493752	14.258125
125.660004	142.984009	1378.843994	16.178749	17.368750	11.961250
139.445999	-29.768000	1426.057983	10.167500	42.437500	24.709999
134.932007	11.041000	1146.800049	8.653750	59.552502	26.114374
207.766006	-0.427000	1187.243042	9.467500	67.313751	20.536249
85.888000	44.652000	934.885986	-13.203750	56.892502	23.839375
21.045000	67.466003	657.763000	-19.722500	98.896873	30.961876
-67.527000	-14.396000	443.470001	-16.935625	49.279999	12.118750
-181.109009	70.820999	540.276978	-12.171250	64.124374	-0.043750
-194.041000	53.192001	444.690002	-10.998750	36.566250	-7.358750
-261.324005	18.422001	510.020996	-8.356250	10.272500	-1.330000
-310.123993	118.035004	715.103027	-4.493125	6.991250	4.160625
-207.583008	69.417999	689.848999	1.592500	11.011875	-5.372500
-293.105011	215.391006	849.913025	-5.381250	-5.547500	-17.609375
-283.833008	236.497009	948.733032	-3.718750	-8.141875	-20.199375
-283.588989	316.285004	1108.552979	13.680625	-15.400000	-40.875626
-84.424004	292.983002	1030.534058	10.600625	-35.481251	-51.537498
-36.722000	243.389999	1030.167969	16.559376	-15.295000	-52.128124
-136.578995	88.571999	926.773010	14.192500	-9.100000	-58.988125
-13.420000	55.754002	949.830994	15.001875	-30.489374	-62.982498
-193.796997	12.749001	977.220032	16.795626	-17.570000	-55.523125
-174.033005	-172.751999	1114.836060	19.258751	20.422501	-30.432501
-141.641998	-242.719009	910.729980	16.143749	-20.103125	-49.017502
-99.186005	-355.019989	1106.906006	-5.906250	-18.580626	-50.439377
-168.177002	-193.065002	968.557983	-7.783125	-16.568125	-47.035625
-252.966995	-329.583008	980.757996	21.857500	14.017500	-31.040625
-266.570007	-270.718018	954.345032	6.343750	-13.746250	-35.323750
-158.112000	-272.059998	935.496033	-4.571875	-0.879375	-23.205000
-97.966003	-122.000000	740.966980	-14.140000	-30.388750	-33.381248
-141.337006	-15.616000	624.091003	-5.083750	-2.629375	-13.238750
-73.261002	-101.687004	645.197021	2.428125	1.338750	1.855000
-36.417000	-10.858000	605.546997	-13.531875	17.460625	-1.334375
-25.620001	-39.466999	817.888000	-21.258125	41.059376	9.340625
-92.354004	-31.415001	589.809021	-48.811874	-67.484375	-1.063125
-71.553001	-188.673004	814.411011	35.223125	12.040000	0.341250
-76.799004	-6.222000	762.072998	12.648125	-45.115002	-7.901250
-12.017000	-70.638000	1143.445068	29.045626	-43.894375	-18.471251
-19.337000	-70.028000	1275.937012	7.870625	-10.867500	-3.828125
51.056999	-23.790001	1431.670044	-15.085000	-52.884998	-3.561250
-0.976000	-53.192001	1575.447021	-8.255625	-56.358749	-0.730625
-49.288002	-67.709999	1593.380981	23.082500	-29.225000	-11.917500
24.521999	20.862000	1597.529053	32.423126	-39.130001	-16.926874
35.624001	42.151001	1345.781982	11.331250	-67.160622	-12.166875
103.151001	-1.647000	1260.077026	-3.093125	-55.982498	-2.905000
106.139999	-121.267998	1023.885010	-16.756250	24.543751	1.513750
116.265999	-179.522995	942.205994	-7.315000	23.205000	-1.496250
108.519005	-270.046997	948.854980	3.675000	26.792500	-3.640000
74.786003	-295.545013	942.023010	15.032500	-3.871875	2.861250
143.533005	-387.227997	821.853027	23.104376	-25.020624	8.155000
180.865005	-351.787018	1046.454956	23.703751	-11.830000	13.733125
243.268005	-348.248993	1042.368042	5.853750	-9.148125	33.232498
280.295013	-297.497009	1015.710999	6.580000	0.494375	35.997501
209.779007	-89.243004	1135.820068	12.814375	38.806252	43.999374
189.770996	-18.117001	1111.724976	-1.837500	43.544376	47.018124
233.874008	115.839005	990.640015	-14.393750	16.104376	41.378750
170.311996	212.707001	1110.810059	-24.500000	10.718750	45.023125
110.288002	187.697006	1035.047974	-36.115623	3.998750	46.235001
205.997009	195.382996	902.372986	-27.011250	-1.535625	18.173750
16.226000	305.000000	980.392029	-6.615000	-25.816875	10.010000
106.262001	293.226990	979.294006	-1.750000	-16.909374	13.846875
18.239000	256.016998	935.496033	13.965000	-10.395000	7.700000
51.910999	191.296005	1001.559021	21.721874	-5.600000	7.651875
38.735001	187.636002	1044.320068	13.930000	15.190000	5.963125
-10.309000	34.160000	1460.096069	12.678750	13.580000	19.245625
6.954000	34.770000	1547.143066	20.470625	-10.714375	25.830000
107.787003	-68.137001	1566.785034	17.639999	-14.000000	31.692499
32.208000	51.972000	1487.546021	11.475625	19.735624	21.004375
177.693008	-26.718000	1366.461060	-2.100000	-5.446875	28.035000
236.680008	-26.840000	1298.385010	-18.108126	61.088123	24.193750
30.988001	-39.101002	1181.630981	-14.713125	45.749374	34.606251
239.791000	-33.000999	1075.796021	11.943750	82.018127	26.687500
73.504997	-8.601000	844.239990	27.899376	46.410000	38.880627
-126.880005	122.732002	623.786011	39.996250	96.958748	11.348750
-115.778000	55.998001	411.079010	5.508125	48.794376	13.356875
-147.498001	143.472000	408.821991	-0.945000	53.777500	-0.975625
-344.467010	50.264000	346.358002	-29.273125	23.751875	-3.521875
-210.999008	136.335007	607.072021	-51.401875	36.496250	11.038125
-346.907013	88.571999	716.750000	-31.478125	25.886875	16.625000
-366.854004	95.953003	819.778992	-8.850625	9.533125	1.220625
-298.595001	305.915009	1032.608032	1.863750	8.535625	-11.593750
-248.574997	288.774017	929.822998	-17.360001	-27.387501	-12.516875
-235.337997	388.386993	1216.279053	-35.905624	-3.618125	-13.615000
-213.927002	106.139999	1096.047974	5.989375	28.345625	-17.154375
-187.270004	25.742001	1142.041992	8.977500	15.806875	-39.777500
-161.772003	-41.785000	943.364990	25.777500	7.910000	-70.564377
-157.440994	-62.341999	920.916992	56.284374	-2.445625	-79.191872
-180.255005	-147.436996	822.768005	53.480000	24.718750	-71.190002
-358.009003	-147.619995	950.197021	61.543125	14.323750	-48.890625
-304.572998	-442.615997	865.773010	48.085625	21.100624	-31.784374
-448.350006	-282.979004	913.536011	31.648750	-3.994375	-35.608124
-381.311005	-327.936005	907.984985	29.386875	7.608125	-33.057499
-508.496002	-185.867004	904.630005	10.014375	-9.940000	-26.267500
-415.287994	-100.528000	677.893005	0.280000	-7.796250	-31.364374
-292.312012	-107.299004	672.158997	4.904375	-20.475000	-33.446877
-217.038010	-121.877998	617.137024	11.405625	-44.953125	-49.279999
-125.416000	105.896004	441.457001	33.429375	-87.211250	-61.337502
-14.213000	-36.112000	612.074036	23.734375	-5.989375	-33.989376
-101.565002	139.141006	599.263977	-21.096251	-37.909374	0.866250
-169.031006	8.967000	505.690002	-27.343750	-32.987499	29.815624
-125.660004	-59.353001	852.231018	-21.131250	7.100625	41.037498
-61.732002	42.761002	847.533997	-47.407501	-46.322498	13.632500
-6.161000	-60.084999	1354.383057	-28.748125	-18.038124	13.488125
-95.709000	-225.395004	1438.441040	-29.032499	-41.536251	9.082500
-219.234009	-115.412003	1930.894043	6.584375	-18.007500	1.238125
-416.446991	-168.665009	1998.604004	47.149376	18.812500	-1.793750
-233.630005	-42.639000	1500.295044	29.601250	-41.195000	-11.440625
-157.380005	-41.602001	1269.654053	7.568750	-44.493752	-9.996875
-187.026001	-91.622002	1063.291016	13.829375	-27.785625	-13.125000
-70.698997	-79.178001	1069.146973	12.131875	-25.156250	-22.855000
-66.063004	-104.126999	1057.312988	3.587500	15.540000	-12.280625
-29.219000	-189.527008	938.363037	3.259375	9.261875	-12.092500
-34.587002	-254.919006	983.197998	19.617500	2.843750	14.888125
-79.300003	-328.851013	1026.751953	20.028749	-1.723750	18.204374
-16.958000	-266.325989	1055.666016	10.675000	-12.985000	25.029375
77.958000	-346.235992	973.926025	-1.058750	-32.488750	35.936249
41.174999	-273.279999	1147.958984	-4.462500	-35.411251	39.147499
66.673004	-142.800995	1042.307007	-15.933750	-29.916250	56.525002
127.246002	-126.026001	1002.656982	-2.524375	-32.243752	74.777496
196.725006	-72.285004	966.850037	14.293125	12.026875	80.416878
49.715000	11.407001	973.255005	7.708750	16.379999	69.068123
225.882996	66.429001	1046.394043	-0.026250	1.618750	59.066875
109.738998	195.566010	1026.995972	-1.233750	-57.526875	35.673752
329.583008	259.127991	1098.182983	16.594376	-9.725625	40.394375
187.391998	249.184998	949.343018	27.129375	0.861875	21.599375
238.693008	386.618011	967.398987	31.626875	-3.815000	2.546250
213.682999	379.968994	966.484009	13.763750	-6.413750	2.900625
149.206009	378.566010	951.843994	6.842500	-26.569374	6.413750
215.391006	245.525009	1021.567017	10.570000	18.974375	9.642500
62.464001	190.137009	950.684998	-3.416875	26.696251	11.523750
137.250000	115.595001	1022.848022	-4.423125	15.430625	8.522500
-12.200000	38.430000	1278.620972	-5.761875	-1.640625	12.713750
49.410000	50.142002	1564.588989	-6.265000	10.486875	16.883125
-132.431000	147.559006	1413.431030	-25.392500	17.189375	34.011250
117.486000	57.767002	1478.457031	-10.303125	-27.619375	20.343750
89.243004	-41.907001	1475.102051	-21.638750	21.507500	13.785625
234.179001	-52.887001	1408.734009	-20.934376	21.765625	6.816250
263.886017	-87.473999	1201.822021	-10.898125	36.583752	4.453750
241.255005	-101.992004	1039.623047	3.530625	51.585625	9.078125
125.111000	-81.191002	863.882019	26.818750	62.068127	4.020625
139.445999	-20.862000	759.389038	21.805000	82.849373	5.530000
-228.872009	-45.201000	377.346008	12.936875	102.768753	-6.890625
-147.315002	176.839005	543.510010	-2.226875	116.768753	-11.585000
-345.321014	92.170998	499.895020	-1.400000	31.535000	0.411250
-339.953003	34.221001	531.065979	-10.395000	37.428123	8.010625
-378.382996	93.940002	695.460999	-10.241875	3.346875	-0.840000
-401.441010	128.649002	785.070007	-5.123125	-10.425625	-3.491250
-337.574005	213.927002	938.911987	3.329375	-21.525000	-11.738125
-266.020996	265.045013	974.963013	7.205625	-39.458126	-28.227501
-142.862000	360.815002	1117.825073	6.776875	-16.100000	-33.013748
-63.744999	300.058990	1040.477051	27.492500	-5.941250	-39.121250
-124.683998	245.647003	931.226013	26.420626	-19.858126	-38.416874
-108.580002	179.949997	1022.604004	31.469376	-16.275000	-48.706875
-16.714001	63.867001	988.322021	18.160625	-6.208125	-56.826874
-119.133003	129.625000	875.960022	14.778750	2.336250	-66.058128
-39.040001	80.764000	972.401001	29.885626	0.918750	-78.701874
-122.182999	16.226000	826.976990	28.209999	-23.432501	-69.855621
-154.208008	-106.994003	1044.197998	-2.751875	15.815625	-29.430626
-256.871002	-269.315002	1030.534058	-26.223749	25.151875	1.120000
-399.550018	-307.867004	1124.473999	-30.795626	2.156875	-3.819375
-435.356995	-278.587006	1006.439026	-6.466250	-8.242500	-31.548124
-290.420990	-207.095001	874.557007	1.645000	-6.138125	-37.900623
-259.250000	-172.081009	769.270996	9.975000	-14.288750	-40.801250
-210.938004	-97.722000	625.981995	21.809376	-17.381874	-50.098125
-86.253998	-52.459999	624.030029	4.011875	-28.542500	-36.395626
-15.677000	-20.618000	573.888000	15.505000	-46.204376	-27.571251
-80.031998	-50.386002	376.919006	6.820625	-41.041874	-19.980625
-100.650002	-4.880000	684.419983	6.177500	4.768750	-3.731875
-75.822998	-137.798996	762.255981	10.710000	-11.462500	2.283750
66.856003	19.093000	1226.405029	-31.386250	-67.287498	-18.344376
-9.272000	-70.455002	935.312988	-20.584375	-100.340622	-7.013125
149.876999	-6.222000	1145.275024	-1.417500	-83.216873	-11.458125
38.186001	-56.119999	1286.124023	24.500000	-36.378124	-8.246875
139.384995	-1.891000	1339.133057	19.919374	-41.256248	-12.770625
76.615997	28.426001	1748.321045	14.686875	-26.473125	-7.761250
103.211998	68.137001	1399.766968	15.526875	-37.174374	-12.604375
119.071999	88.754997	1313.025024	2.791250	-34.965000	-3.386250
130.052002	54.778000	1232.932007	-8.417500	-10.062500	-0.770000
134.016998	71.248001	1127.707031	-11.808125	-0.857500	1.649375
180.559998	-41.174999	1044.625000	2.445625	23.419374	1.793750
130.296005	-27.938000	954.588989	7.424375	5.538750	-1.903125
147.742004	-78.812004	941.291016	5.061875	-4.366250	1.627500
182.695007	-70.333000	943.182007	3.241875	9.677500	2.165625
188.063004	-169.518997	1040.354980	4.641875	9.817500	12.359375
203.984009	-301.889008	967.643005	-2.165625	11.230625	30.751875
103.761002	-337.208008	988.505005	16.025625	15.706250	37.064999
71.370003	-364.841003	992.165039	22.299376	22.452499	36.513748
126.696999	-278.464996	1137.344971	29.785000	7.433125	18.112499
285.968018	-101.625999	1157.353027	-0.433125	26.543125	39.904373
165.737000	14.701000	1161.623047	-5.731250	12.591250	42.498749
192.760010	-63.195999	1099.708008	-14.630000	34.024376	54.324375
190.930008	41.480000	955.138000	-19.735624	21.345625	47.595627
79.666000	152.072998	773.296997	-39.532501	-34.339375	48.365623
266.570007	235.277008	885.171021	-51.887501	-22.312500	45.084373
169.580002	369.233002	986.309021	-36.351875	-9.310000	39.038124
143.654999	321.226013	948.854980	-21.371876	-10.491250	33.346249
153.964005	315.980011	958.371033	-4.760000	8.181250	17.915625
54.473000	347.089996	913.658020	10.329375	-20.063749	9.922500
75.274002	112.179001	995.215027	-7.179375	0.323750	13.343750
31.781000	28.243000	1227.197998	2.117500	3.469375	11.134375
35.563000	-77.165001	1286.245972	6.545000	-29.955626	4.204375
115.167999	-171.776001	1257.576050	17.985624	-48.759377	1.745625
99.430000	-80.641998	1486.813965	15.141875	-16.270624	11.851875
125.660004	-140.117004	1355.359009	3.867500	7.297500	21.074375
169.214005	-26.901001	1446.797974	-12.971875	-8.181250	19.372499
148.473999	-103.334000	1462.291992	-23.135000	33.871250	40.057499
161.162003	-174.764999	1326.322998	-11.484375	33.162498	26.228125
280.356018	-109.678001	1207.250977	26.639376	27.208124	19.416250
419.679993	-22.753000	1039.500977	42.214375	26.486250	20.050625
198.005997	-23.424000	793.854004	22.487499	96.858124	22.115625
91.622002	-36.783001	472.445007	1.846250	71.701874	23.051874
-22.509001	-59.597000	515.572021	4.781875	54.228127	8.666875
-14.823000	95.281998	656.848022	21.472500	72.725624	-5.473125
-151.951004	-7.869000	439.566010	23.476250	25.309376	-13.645625
-101.443001	119.255005	623.908020	3.373125	47.293751	-21.301874
-273.768005	169.641006	555.039001	-7.533750	22.776251	-7.367500
-264.679016	121.877998	782.874023	-21.559999	-8.470000	0.879375
-196.115005	128.039001	905.789001	4.606875	21.971251	-0.551250
-173.057007	243.817001	1033.523071	-7.472500	28.923124	-15.351875
-218.501999	142.679001	884.927002	0.914375	1.986250	-22.194374
-248.270004	240.766998	970.692993	15.820000	-30.025625	-43.404373
-100.710999	250.954010	1005.218994	10.425625	0.393750	-41.111874
-177.266006	236.680008	965.934998	-1.120000	-19.630625	-46.948124
-17.750999	192.820999	1082.811035	22.640625	3.290000	-38.552502
-142.251999	78.995003	914.390015	31.154375	-0.621250	-46.287498
-107.909004	-52.764999	1067.134033	34.243126	-23.305626	-50.758751
-76.006004	-216.123001	1062.131958	6.540625	-5.293750	-45.810623
-201.544006	-219.844009	1104.222046	6.855625	24.587500	-36.185623
-208.925003	-317.200012	1030.961060	0.332500	-10.666250	-26.543125
-220.759003	-230.763000	1010.892029	-3.753750	-11.313750	-24.876249
-146.033997	-231.311996	1038.342041	0.866250	12.140625	-20.435625
-266.752991	-138.958008	935.312988	-4.344375	6.081250	-22.557501
-180.621002	-104.859001	859.734009	1.408750	5.543125	-18.081875
-133.956009	-72.834000	775.127014	1.176875	-5.031250	-17.123751
-117.120003	27.755001	656.908997	5.591250	-11.361875	-10.198125
-86.375999	-1.464000	654.773987	10.434375	1.776250	-0.634375
-59.779999	9.333000	663.314026	1.321250	-37.305626	5.508125
-42.212002	8.174000	684.725037	-13.881875	-36.881248	13.063750
38.735001	151.462997	741.577026	8.085000	-69.986877	-8.750000
28.853001	22.691999	870.286987	13.549375	-29.220625	-15.207500
69.784004	120.963005	1002.535034	2.108750	-8.356250	-2.550625
155.244995	53.131001	969.046021	7.940625	-66.023125	-20.566875
92.475998	35.990002	1137.650024	-33.131874	-58.161251	5.250000
147.315002	-112.544998	1296.067017	-48.291248	-26.079374	15.176875
121.084999	-46.421001	1199.381958	-37.935623	-45.018749	19.766251
-91.377998	-144.203995	1520.364014	16.826250	-8.509375	-0.105000
70.089005	39.771999	1276.302979	8.666875	-66.478127	-23.375626
96.746002	-15.189000	1359.140991	-11.138750	-11.681250	-18.908751
65.879997	-84.119003	1228.844971	-19.411875	3.386250	-19.175625
91.927002	-45.811001	1065.243042	-15.448125	-2.537500	-15.942500
89.426003	-62.586002	1028.886963	-8.531250	-7.363125	-4.878125
101.870003	-105.469002	1027.728027	-7.227500	-4.388125	0.840000
127.551003	-174.277008	1012.234009	-5.582500	-1.789375	8.566250
97.112000	-263.337006	1030.961060	-4.484375	-14.861875	6.864375
157.380005	-317.382996	1008.635010	3.955000	2.266250	7.118125
130.906006	-305.854004	1006.561035	15.636250	0.896875	23.279375
139.507004	-310.368011	969.106995	25.396875	-5.114375	31.325001
125.050003	-254.065002	1003.510986	22.640625	-11.729375	30.489374
137.738007	-173.910995	973.926025	12.228125	-9.817500	35.301876
274.256012	-275.781006	984.174011	4.720625	1.872500	52.062500
192.150009	-217.160004	1063.839966	18.536875	43.360626	43.863750
240.949997	15.982000	1073.966064	40.368126	40.210625	39.991875
231.128998	69.112999	1097.207031	20.055000	32.694374	73.364372
50.691002	-72.834000	1146.312012	-12.197500	54.066250	69.763748
160.186005	81.496002	1015.893982	-25.895624	-17.920000	25.007500
107.055000	160.917999	924.515991	-15.124375	-18.563126	3.653125
147.315002	326.716003	1007.171021	-9.909375	-13.881875	-2.108750
177.876007	301.644989	974.169983	-6.768125	-18.978750	14.551250
151.097000	203.740005	866.078003	-3.836875	-28.551250	24.224375
157.074997	206.729004	981.307007	-9.520000	-20.816250	17.088751
149.511002	217.038010	916.585999	1.041250	-26.643749	1.168125
158.294998	139.324005	1146.433960	9.738750	-29.063126	8.623125
148.046997	101.687004	1176.202026	17.066875	-11.405625	12.359375
124.500999	-3.904000	1223.416016	21.354376	-11.821250	15.128750
183.488007	-28.243000	1367.010010	17.115000	-29.728125	-0.030625
344.222992	54.595001	1553.426025	13.260625	-36.470001	1.491875
305.304993	12.505000	1436.977051	5.446875	72.646873	23.379999
294.080994	-4.636000	1397.083008	9.677500	108.097504	28.966875
134.565994	-12.383000	1208.776001	0.962500	79.778122	29.242500
211.914001	-70.455002	1178.154053	9.498125	58.887501	26.140625
166.042007	7.686000	1019.432007	29.575001	90.247498	17.158751
64.598999	9.638000	957.212036	14.026250	77.459373	20.781250
59.658001	40.260002	905.850037	11.816875	48.934376	3.832500
-163.419006	86.375999	477.507996	13.365625	32.965626	0.787500
-25.742001	72.834000	612.562012	19.543125	59.556873	-0.651875
-56.486000	15.799000	467.076996	2.821875	55.558125	3.255000
-221.735001	77.225998	545.462036	-1.894375	51.686249	8.356250
-271.571991	56.242001	585.539001	-10.128125	50.701874	9.821875
-308.843018	96.319000	687.897034	-10.473750	8.750000	4.423125
-316.528992	82.349998	845.887024	-2.870000	17.215626	5.219375
-321.653015	183.915009	906.704041	-0.441875	-7.455000	-11.943750
-231.556000	272.425995	962.640991	5.670000	-14.424375	-20.496876
-200.080002	384.605011	1060.729004	11.195625	-7.227500	-27.483749
-199.042999	484.766998	1044.686035	18.361876	4.226250	-26.652500
-100.467003	444.140991	819.535034	18.256874	-4.786250	-32.016251
-148.718002	373.625000	1039.867065	5.919375	-10.115000	-37.257500
-101.870003	232.897995	1048.162964	-20.264999	-26.459999	-40.915001
-151.035995	194.895004	955.747986	-27.540625	-58.047501	-55.951874
32.330002	117.486000	1053.896973	8.706250	2.095625	-84.735001
-73.931999	21.228001	1013.759033	30.358126	-3.902500	-73.080002
34.647999	-76.372002	994.910034	57.570625	-8.251250	-47.088123
-231.068008	-235.704010	1147.410034	25.471251	35.551250	-20.886250
-288.713013	-246.988998	988.078003	-14.988750	-16.165625	-32.143124
-304.634003	-207.826996	991.189026	-3.631250	1.841875	-44.231251
-260.470001	-236.923996	879.497986	20.225624	6.326250	-44.139374
-277.428009	-120.597000	791.109009	10.841250	11.252500	-39.300625
-206.973007	9.699000	685.822998	-6.361250	-3.670625	-18.165001
-196.847000	-100.528000	727.364014	-15.986250	18.620001	-14.424375
-147.070999	38.674000	615.124023	-10.933125	-22.063126	-24.968124
-132.613998	-71.736000	722.484009	8.544375	25.353125	-26.551874
-140.971008	6.466000	603.473022	-11.405625	-48.212502	-13.772500
-146.705002	58.011002	669.596985	-7.503125	-49.958126	-4.138750
-97.051003	134.382996	656.543030	-33.486252	-116.331253	-13.868750
82.532997	6.710000	713.578003	-37.034374	-85.583748	9.047500
96.624001	-10.004000	860.527039	-25.825624	-106.456879	-4.878125
231.434006	-216.061996	1232.687988	1.456875	-89.827499	-3.889375
260.470001	-174.703995	1593.136963	7.770000	-75.971878	-20.321875
245.830002	-89.121002	1619.794067	13.221250	-45.797501	-36.671249
145.240997	-87.047005	1663.958008	17.749374	-28.433125	-43.894375
216.854996	133.041000	1630.774048	34.186249	4.427500	-35.070000
142.923004	187.453003	1506.700073	35.861874	28.371876	-3.150000
126.636002	174.520996	1207.067993	13.925625	13.689375	12.678750
126.696999	68.807999	981.734009	-10.421250	22.045626	14.227500
154.574005	36.600002	953.369019	-9.874375	8.351875	6.750625
150.914001	7.442000	1033.645020	3.360000	10.150000	-3.806250
142.923004	22.326000	941.962036	-0.861875	20.663124	-6.746250
105.591003	-108.275002	975.023987	-6.160000	17.666250	-4.204375
101.138000	-173.972000	1023.458008	-9.747500	16.638124	-0.358750
74.969002	-266.204010	948.854980	-15.872500	16.778126	21.021875
-40.077000	-361.242004	997.471985	-5.210625	23.576876	14.546875
5.612000	-305.427002	1097.817017	-6.422500	11.519375	10.276875
56.791000	-300.425018	1070.306030	-1.509375	15.483125	18.725000
122.182999	-230.763000	1081.041992	10.758125	-12.998125	14.560000
242.048004	-61.366001	1053.652954	-0.420000	-52.972500	21.096251
190.747009	34.342999	1068.963989	9.878750	17.486876	59.906876
183.792999	-94.976997	1033.096069	13.076875	47.525623	88.178123
131.333008	27.084000	892.918030	2.598750	27.020000	81.812500
261.019012	142.313004	972.218018	-27.545000	31.889376	85.006248
226.919998	332.632996	1083.421021	-34.527500	7.358750	65.340622
162.382004	381.006012	947.025024	-37.935623	-17.889376	56.056873
178.242004	352.213989	1066.280029	-28.813749	-7.048125	49.988750
192.455002	368.135010	994.239014	-0.980000	-14.577500	24.745001
55.327000	193.492004	1039.440063	21.857500	7.700000	30.117500
7.808000	88.754997	1042.916992	35.398125	-6.133750	26.004999
4.148000	45.323002	1326.932983	34.509998	8.964375	14.551250
7.625000	29.889999	1396.351074	20.238750	-9.441250	12.691875
-15.067000	-72.041000	1518.900024	10.185000	-10.053750	11.725000
40.443001	66.856003	1597.589966	-16.253124	5.652500	2.843750
-7.442000	-36.783001	1459.973999	7.809375	41.986874	16.410625
6.832000	-33.123001	1451.006958	30.515625	47.263126	17.416876
60.573002	19.215000	1346.818970	44.371250	39.510624	16.406250
236.130997	-50.751999	1014.979004	21.170626	88.462502	37.533127
145.729004	-37.088001	842.653992	10.740625	80.661873	26.805626
54.046001	-27.877001	754.997009	7.533750	83.111877	22.579374
-87.961998	37.149002	617.807983	1.303750	79.485001	20.667500
-207.583008	116.510002	431.026001	1.977500	36.461250	14.170625
-155.244995	128.466003	600.606018	-6.243125	60.961250	17.346874
-188.246002	221.796005	438.895020	8.846250	39.165001	17.071251
-247.721008	142.740005	553.575012	6.746250	40.928123	21.026251
-304.817017	250.710007	599.996033	-9.310000	15.207500	8.146250
-372.404999	302.071991	848.692993	11.418750	-8.653750	-18.501875
-329.033997	327.692017	894.992004	21.599375	-39.370625	-28.879375
-173.850006	345.382019	947.268982	14.345625	-21.472500	-33.985001
-164.639008	388.570007	977.463989	3.920000	-27.028749	-38.955002
-48.373001	485.621002	977.342041	8.741250	-27.374374	-34.820625
-157.257996	490.989014	886.085999	30.979376	-27.667500	-39.173752
-154.391006	425.536011	1065.364990	3.460625	-16.034374	-56.271252
-133.285004	446.946991	1030.900024	5.709375	-27.151251	-63.131248
-34.952999	278.037994	947.147034	17.749374	-9.331875	-68.796875
-75.579002	31.110001	944.890015	9.270625	-46.707500	-82.201874
-13.176001	-94.367004	1070.610962	7.748125	7.179375	-77.288750
-167.628006	-169.945999	1151.619019	-13.273750	3.342500	-54.350624
-240.889008	-226.249008	1068.659058	-22.084999	11.361875	-43.951248
-349.164001	-238.570999	1095.926025	0.240625	8.303750	-54.429375
-338.976990	-291.031006	1125.572021	12.971875	-5.796875	-60.020626
-372.222015	-251.990997	1036.451050	9.646875	-11.659375	-44.384377
-295.606018	-216.123001	882.304016	9.292500	-1.010625	-40.919376
-330.985992	-193.796997	795.989014	-9.642500	-4.821250	-20.680626
-252.540009	-123.403000	778.970032	-1.050000	4.335625	-11.738125
-128.160995	15.921000	710.772034	2.948750	-19.000626	-4.729375
-61.183002	-53.008999	651.296997	4.025000	-19.250000	-9.677500
-124.683998	119.804001	557.906006	-3.933125	-31.456249	5.858125
-54.716999	54.656002	730.902039	-10.683750	3.246250	15.570625
-268.826996	25.986000	531.309998	-17.644375	-63.275623	-0.428750
112.911003	173.423004	734.927979	7.122500	-87.373123	-27.772499
-73.809998	11.163000	1039.562012	14.901250	-64.421875	-14.752500
34.403999	59.414001	820.815979	0.245000	-78.846252	-19.140625
189.832001	37.758999	1549.034058	-26.565001	-54.416248	1.028125
198.311005	77.409004	1299.056030	-57.176876	-74.777496	13.811875
-9.211000	-82.594002	1429.046997	-13.938750	-22.566250	-30.170000
160.917999	70.515999	1282.646973	15.535625	-21.634375	-17.066875
104.737000	-97.417000	1393.666992	11.108125	-1.802500	-3.438750
164.334000	-27.511000	1210.362061	11.016250	3.806250	-8.881250
113.338005	34.038002	1141.493042	5.302500	9.073750	-6.168750
88.633003	57.278999	1088.057007	-2.743125	4.900000	-6.510000
156.831009	-26.901001	1070.671997	-9.616250	10.408125	-4.974375
146.216995	-66.794998	1061.094971	-9.191875	11.291875	-6.925625
141.214996	-82.472000	955.565002	-2.375625	2.065000	-5.057500
100.955002	-166.469009	964.715027	4.725000	8.929375	2.839375
95.098999	-419.497009	1041.087036	5.621875	16.432501	13.982500
34.892002	-455.670013	1017.785034	5.236875	-5.276250	16.900625
117.913002	-469.578003	974.963013	13.164375	26.508125	17.902500
16.165001	-336.658997	1113.494019	12.245625	38.858749	18.777500
46.726002	-277.062012	1075.857056	5.096875	17.320625	18.532499
65.819000	-171.287994	1107.150024	3.981250	-0.949375	25.602501
46.116001	-51.605999	1074.942017	2.467500	-16.913750	29.583750
110.959000	-21.837999	1106.296021	-5.827500	-20.098749	21.139999
151.828995	155.123001	985.577026	-20.370001	8.815625	47.564999
216.733002	21.410999	991.067017	-35.857498	-10.521875	54.919376
176.716995	181.597000	963.129028	-31.211250	31.193750	39.007500
206.057999	181.169998	1105.015015	-30.397499	16.445625	38.543751
164.272995	256.200012	1034.010986	-6.146875	35.949375	23.651251
63.257000	261.994995	1027.666992	3.395000	-2.913750	25.208750
53.862999	151.035995	925.065002	17.535000	-12.757500	12.530000
16.287001	184.220001	932.751038	30.012501	7.936250	5.687500
-25.925001	47.336002	999.484985	21.052500	1.015000	13.842500
39.345001	41.053001	1085.617065	23.187500	-13.085625	1.911875
-21.350000	-17.385000	1340.353027	3.110625	-48.829376	25.668125
7.808000	-119.987000	1500.661011	25.440624	-9.380000	15.006250
-41.846001	-116.083000	1332.911011	21.673750	-51.288124	1.233750
231.800003	-6.832000	1493.951050	19.376875	-2.397500	5.306875
57.218002	-59.353001	1273.802002	-12.355000	13.133750	27.409374
232.227005	127.978004	1309.364990	14.210000	44.546249	27.711250
-2.928000	44.103001	1362.191040	9.983750	83.754997	54.429375
134.078003	-48.799999	1100.927979	24.941875	74.274376	38.758125
-3.050000	61.732002	1163.148071	5.337500	91.091873	22.041250
22.814001	-40.077000	953.002991	0.065625	74.794998	10.600625
-35.075001	52.948002	896.395020	15.225000	67.103752	-1.885625
-55.815002	23.851000	571.203979	9.883125	62.326248	-21.861876
-147.986008	69.905998	580.171021	8.207500	63.879375	-6.890625
-256.321991	-66.063004	434.502991	-5.573750	47.276249	-4.182500
-279.075012	149.084000	597.861023	-11.624375	44.760624	5.280625
-363.621002	-19.398001	558.088989	2.533125	22.325624	17.674999
-371.307007	103.334000	756.400024	-9.279375	-2.913750	5.656875
-330.315002	52.094002	771.528015	13.505625	-24.924376	-5.770625
-261.385010	60.817001	797.148010	6.046250	-11.904375	-20.483749
-271.755005	174.764999	870.470032	-6.790000	-19.175625	-26.998125
-328.058014	359.290009	884.744019	10.346875	-33.705002	-34.890625
-233.996002	308.537994	969.838989	6.908125	-10.797500	-27.002501
-250.100006	319.884003	1205.786987	-19.188749	-8.785000	-31.184999
-148.169006	303.536011	1182.119019	4.961250	1.260000	-40.044376
-256.932007	96.075005	1006.500000	22.128750	-11.379375	-56.433125
-106.262001	236.923996	984.356995	24.863125	-9.677500	-81.878128
-184.951996	32.208000	1061.644043	33.424999	-21.223125	-77.323753
-70.333000	78.080002	909.937012	50.111252	-6.492500	-82.394379
-214.598007	-121.389999	1150.886963	25.445000	-13.186250	-76.457497
-201.788010	-195.626999	953.734985	17.885000	-42.476875	-69.986877
-143.044998	-309.636017	1062.802979	7.861875	15.579375	-43.885624
-199.165009	-274.317017	993.018982	-10.806250	24.587500	-22.093750
-297.740997	-261.567993	1045.600952	-11.935000	37.506874	-11.405625
-277.733002	-192.820999	903.776001	-10.027500	0.739375	-13.733125
-373.686005	-162.626007	823.377991	-6.400625	4.147500	-6.107500
-216.671997	-118.950005	771.101013	-13.956250	-7.844375	-12.320000
-149.755005	-22.875000	620.552979	-10.710000	-24.027500	-13.838125
-72.346001	-54.534000	657.885010	-7.485625	-1.050000	-8.316875
-336.720001	-87.596001	571.387024	6.085625	-22.688749	-19.525625
-110.653999	41.663002	629.153992	26.735624	-23.336250	-13.295625
-134.749008	22.326000	545.156982	15.334375	-56.503124	-2.493750
-100.833000	-43.431999	792.512024	-26.118750	-20.155624	11.585000
-56.730000	-1.952000	542.778015	-56.704376	-71.820000	10.311875
177.509995	-70.089005	899.262024	-2.563750	-60.488750	5.866875
-25.986000	-167.262009	1087.508057	-19.381250	-52.626877	24.578751
220.454010	105.224998	1252.452026	-6.461875	-98.030624	13.846875
123.464005	-65.148003	1790.838013	24.998751	-58.108749	15.758750
129.259003	-22.448000	1453.447021	-11.361875	-53.768749	-6.440000
35.990002	120.353004	1602.409058	4.388125	-43.255627	-7.783125
46.299000	73.383003	1574.531982	22.041250	-12.805625	5.149375
64.233002	77.530998	1333.765015	6.435625	2.130625	2.988125
91.012001	27.938000	1172.847046	-16.585625	4.733750	0.424375
114.009003	-12.383000	1036.695068	-20.785625	20.969376	4.545625
117.303001	-110.410004	916.036987	-14.310625	12.110000	14.008750
95.953003	-205.203995	891.027039	5.153750	21.476875	4.965625
173.117996	-134.871002	880.535034	23.918125	31.644375	-7.240625
148.535004	-170.678009	876.936035	17.364374	-14.936250	-1.824375
155.733002	-255.285004	843.020020	1.238125	-15.404375	7.070000
174.399002	-372.343994	895.174988	2.655625	22.325624	19.018126
161.528000	-217.404007	982.283020	8.391250	8.430625	24.723125
189.587997	-202.276001	1021.322998	11.309375	-10.119375	50.513748
188.612000	-227.591003	967.887024	16.856874	-8.859375	54.674374
246.806000	-10.736000	1104.466064	9.533125	-29.290625	62.264999
267.972992	18.910000	1111.603027	7.455000	-12.950000	84.533752
260.531006	110.166000	1043.405029	26.621876	9.528750	88.869377
272.914001	147.070999	1053.592041	12.184375	1.920625	90.549377
82.959999	87.108002	1049.932007	-15.163750	-8.736875	76.689377
288.957001	137.311005	1095.193970	-41.177502	-7.743750	57.321251
186.111008	137.921005	1025.348999	-16.506874	15.736875	45.981251
301.278992	231.800003	996.557007	-7.218750	2.008125	20.978125
165.371002	200.690002	1010.648010	2.100000	5.783750	11.536875
100.894005	156.281998	962.580017	12.053125	0.638750	2.078125
93.147003	141.764008	938.119019	13.580000	-12.836250	-0.118125
82.167000	14.152000	1054.019043	25.764376	-10.893750	2.826250
139.934006	55.998001	1163.514038	29.448126	-3.793125	-6.120625
140.056000	11.895000	1236.958008	22.386875	-27.168751	-1.505000
134.688004	-19.764000	1386.895996	3.101875	-15.745625	2.773750
150.121002	-52.277000	1495.476074	11.991875	11.510625	16.108749
99.307999	36.600002	1462.536011	10.941875	51.773750	14.476875
206.302002	47.824001	1310.341064	12.888750	24.224375	18.611250
6.100000	39.711002	1227.503052	9.209375	-8.946875	22.846251
184.037003	-38.430000	1255.868042	3.648750	33.985001	21.533751
210.206009	44.834999	1202.126953	23.266251	72.874374	11.274375
190.442001	-82.959999	1046.271973	17.915625	70.266876	10.228750
182.817001	23.912001	978.135010	18.593750	95.921875	3.053750
182.024002	47.640999	789.828003	24.994375	124.525627	6.947500
-44.591000	-14.518001	513.802979	28.070000	88.830002	8.509375
-159.453995	133.468002	378.932007	8.894375	45.924374	11.488750
-268.278015	105.224998	654.895996	1.478750	59.119373	22.841875
-292.251007	197.274002	658.983032	-20.195000	39.318127	14.656250
-307.562012	219.783005	670.877991	-11.812500	-2.690625	-3.276875
-315.308990	253.333008	761.523987	1.176875	3.486875	-17.368750
-277.367004	257.602997	876.875000	-1.255625	0.511875	-27.667500
-291.213989	298.838989	981.002014	-6.221250	-10.801875	-35.940624
-216.306000	361.364014	967.947998	11.628750	-2.143750	-32.130001
-318.114990	280.477997	833.931030	29.894375	-13.247500	-41.947498
-270.473999	263.703003	827.343018	8.032500	-39.567501	-59.876251
-155.854996	324.032013	887.794006	16.283751	-34.409374	-62.260624
-186.660004	253.820999	854.609985	22.938126	-25.808125	-58.611874
-251.076004	242.231003	885.720032	26.464375	-22.671249	-49.770000
-182.085007	101.503998	1083.848022	9.423750	-5.398750	-65.436874
-142.923004	3.904000	1059.143066	-31.937500	-53.589375	-49.721874
-105.712997	-311.161011	1177.117065	-19.722500	-40.683125	-42.284374
-206.973007	-224.175003	1152.107056	-11.716250	5.092500	-48.833752
-213.317001	-349.407990	1162.050049	-1.207500	-35.883751	-52.898125
-226.798004	-308.843018	1085.921997	15.308125	-1.251250	-43.036877
-193.613998	-234.484009	862.174011	15.785000	-17.224375	-42.328125
-236.863007	-99.552002	840.397034	28.931875	22.373751	-17.815001
-226.615005	-162.992004	805.444031	-0.721875	-3.360000	-20.969376
-189.404999	-104.188004	699.731018	-46.654999	-11.401250	-24.924376
-156.160004	-81.923004	677.893005	-20.011250	1.605625	-12.092500
-265.838013	-53.313999	512.583008	8.019375	-28.612499	-18.930626
-117.913002	-43.615002	656.786987	21.516251	-31.631250	-8.933750
-40.869999	1.342000	813.496033	10.097500	-18.243750	-0.949375
-33.855000	-56.181000	827.281982	5.040000	-46.221874	-5.258750
92.170998	-67.344002	907.802002	-48.418125	-19.630625	-8.347500
-82.959999	21.228001	998.570007	-48.855625	37.104374	-1.763125
74.847000	-149.938004	1082.078979	-26.656876	-23.782499	-15.929375
-14.701000	-16.775000	1113.615967	-0.599375	-35.380627	-4.191250
-45.018002	-120.719002	1126.670044	-10.128125	-41.081249	4.593750
-9.211000	-127.917000	1382.077026	-21.559999	-90.282501	4.475625
74.603004	-195.992996	1529.941040	3.027500	-42.717499	-15.185625
113.642998	-105.286003	1592.588013	39.375000	-71.290627	-34.264999
191.906006	100.345001	1310.036011	40.407501	-66.403748	-13.689375
117.181000	-24.278000	1115.446045	21.083124	-7.091875	14.809375
178.546997	-36.295002	1077.565063	4.628750	-0.083125	6.238750
162.503998	-63.500999	1032.852051	7.805000	7.870625	1.443750
187.574997	-65.514000	1022.543030	6.527500	1.872500	3.596250
193.796997	-222.650009	975.390015	-20.230000	-21.411249	6.912500
185.867004	-244.548996	890.294983	-20.873125	-31.106251	8.207500
247.416000	-383.446014	1043.832031	21.787500	20.190624	16.703751
210.022995	-445.056000	1020.103027	35.700001	28.371876	17.403749
211.425995	-236.253006	1107.088989	30.034374	-1.916250	22.163750
178.363998	-271.084015	1123.498047	15.701875	22.102501	41.221249
112.849998	-160.613007	1082.505981	-12.823125	-8.150625	52.552502
299.510010	-226.309998	1000.765991	-0.778750	0.415625	66.136871
229.421005	-84.912003	910.669006	-7.599375	18.265625	71.579376
211.059998	-40.504002	773.479980	-9.699375	2.874375	70.489998
295.423004	136.457001	925.736023	-16.493750	2.616250	61.989376
232.531998	187.941010	713.151001	-6.829375	-2.366875	45.705624
198.005997	261.567993	969.838989	15.334375	6.973750	33.831875
226.676010	297.985016	1010.953003	33.096874	-12.849375	32.939377
197.518005	272.121002	1046.333008	44.463123	-17.215626	40.534374
146.216995	147.559006	1048.041016	15.907500	6.851250	34.006874
152.927002	214.292999	1083.665039	6.720000	-1.675625	17.780001
123.464005	125.477005	1024.190063	-5.534375	-4.611250	8.015000
130.845001	181.719009	1195.966064	8.855000	1.373750	2.161250
136.335007	160.490997	1311.561035	5.656875	-3.723125	21.371876
97.051003	-26.840000	1191.269043	-6.715625	-3.364375	25.226250
114.802002	34.526001	1360.787964	-3.460625	-5.971875	12.315625
167.567001	-46.116001	1401.474976	-18.720625	9.108750	15.806875
129.014999	6.527000	1334.802002	5.403125	21.805000	18.046875
181.719009	-37.637001	1470.953979	0.433125	2.546250	37.279373
174.033005	-74.419998	1269.593018	9.712500	71.141876	25.694374
95.038002	-185.195999	1218.901978	-7.310625	75.521248	17.850000
101.443001	-110.410004	1141.432007	21.310625	75.438126	13.973750
107.787003	-100.467003	1054.994995	38.618126	80.823753	18.659374
-48.434002	-68.564003	718.275024	28.118126	56.866249	21.319374
-97.234001	90.341003	711.931030	29.566250	49.411251	14.214375
-158.356003	32.269001	538.507996	23.546249	81.129997	-3.504375
-227.469009	119.499001	510.631012	9.878750	38.727501	-1.220625
-299.692993	42.334000	549.304993	-3.600625	28.936251	-12.901875
-269.498016	77.348000	666.973999	11.204375	7.494375	-12.180000
-241.438004	54.839001	668.682007	1.706250	5.486250	-15.207500
-231.983002	152.438995	732.244019	-5.057500	15.837500	-11.703125
-310.123993	124.257004	824.963989	-1.308125	-3.123750	-4.208750
-248.148010	138.225998	885.354004	-1.999375	-8.505000	-9.756250
-307.989014	252.966995	976.609985	2.813125	-7.358750	-16.248751
-232.897995	333.487000	943.304016	7.096250	-19.748751	-28.280001
-126.026001	391.498016	1033.218018	12.845000	-11.361875	-37.235626
-133.895004	422.242004	1065.914062	6.903750	-19.442499	-34.006874
-133.834000	293.653992	1045.174072	6.601875	5.376875	-20.737499
-181.048004	32.574001	1243.546021	2.213750	3.062500	-49.647499
-117.120003	30.988001	970.815002	8.946875	-15.868125	-75.578125
-176.412003	29.280001	1186.450073	32.038124	3.255000	-99.653748
-157.319000	23.118999	973.010986	11.326875	-24.679375	-98.161873
-146.888000	-41.968002	1027.178955	25.313749	-5.092500	-65.979378
-159.393005	-139.934006	1015.710999	11.046875	-30.126249	-45.430000
-223.260010	-269.924988	832.833008	-16.016874	9.375625	-2.480625
-367.097992	-284.260010	878.400024	-30.751875	0.385000	-3.920000
-398.085999	-277.976990	815.936035	-12.022500	0.087500	-24.416876
-306.647003	-202.703003	904.264038	44.139374	-8.649375	-46.593750
-285.419006	-115.839005	842.410034	25.436251	-8.968750	-35.065624
-193.369995	-70.150002	844.911011	-5.705000	-9.533125	-23.528749
-199.165009	-49.715000	714.492981	-7.700000	-4.414375	-19.394375
-190.990997	-49.776001	658.739014	1.509375	-25.878124	-24.950624
-162.016006	-1.220000	621.651001	-6.107500	-47.543125	-27.545000
-93.757004	60.878002	519.049011	8.395625	-51.178749	-25.138750
-130.723007	-68.990997	679.479004	-2.813125	-52.001251	-14.196875
-13.847000	61.061001	734.989014	-20.518749	-61.582500	-28.551250
127.978004	-25.864000	1010.098999	-52.779999	-70.542503	-5.761875
333.487000	-69.600998	999.851013	-52.819374	-58.231251	6.186250
176.533997	-99.064003	1198.406006	-49.743752	-58.668751	0.354375
300.119995	-108.519005	1298.385010	-11.917500	-65.655624	-23.568125
256.139008	-164.151001	1348.770996	10.176250	2.244375	-17.902500
78.385002	-177.998001	1414.651001	-28.490000	30.896250	-31.311874
195.139008	-118.950005	1547.753052	-38.941875	-37.520000	-16.909374
162.503998	-220.880997	1338.766968	-2.520000	-45.360001	0.030625
211.242996	-219.722000	1268.739014	23.108749	-32.055626	-0.770000
157.074997	-92.537003	1071.648071	19.372499	-3.198125	7.682500
178.852005	-172.081009	971.546997	19.341875	4.681250	3.508750
201.483002	-159.453995	963.983032	24.303125	18.200001	-1.732500
196.481003	-184.281006	925.553040	33.061874	22.133125	-1.395625
170.861008	-174.216003	853.207031	41.842499	20.663124	4.646250
169.701996	-188.856003	940.681030	38.683750	9.476250	16.699375
156.647995	-156.404007	890.966003	37.043125	-10.377500	18.029375
177.449005	-182.695007	994.117004	48.107498	10.185000	17.119375
158.112000	-207.583008	1171.383057	38.526249	38.749374	19.346251
118.523003	-96.441002	1098.671021	23.931250	13.173125	26.219376
157.990005	-3.904000	1225.551025	-25.545626	16.410625	44.143749
196.969009	12.322001	1104.526978	-48.820625	-14.188125	51.091251
175.009003	-17.202000	1195.234009	-57.833126	3.504375	75.635002
272.364990	-181.352997	972.645020	-58.253124	-17.775625	63.166248
190.563995	51.484001	757.986023	-17.828125	-8.290625	39.239376
272.975006	122.182999	1027.911011	3.832500	-12.530000	34.006874
371.063019	202.154007	847.595032	7.021875	-0.665000	24.189375
128.404999	306.951996	876.325989	-5.893125	-1.933750	38.167500
294.386017	239.913010	1083.665039	-14.520625	-6.816250	47.368126
187.147995	199.408997	1031.327026	18.305000	10.062500	25.042500
187.026001	162.199005	1011.989990	24.556875	5.101250	12.648125
117.547005	183.305008	914.877991	25.685625	-1.369375	8.233750
105.103004	83.752998	1078.785034	7.039375	5.604375	13.050625
93.635002	52.704002	1104.953979	5.031250	-1.509375	2.970625
110.653999	-17.263000	1310.828979	2.318750	-29.426250	6.457500
189.100006	-46.482002	1391.837036	2.003750	-39.917500	0.113750
223.686996	-60.268002	1421.666016	15.010625	-28.393749	0.809375
206.302002	38.979000	1479.738037	5.442500	5.626250	29.203125
165.492996	-31.659000	1436.306030	-2.135000	12.691875	34.838123
211.914001	-58.621002	1242.386963	-9.716875	54.293751	19.306875
149.449997	-331.169006	1221.586060	-8.671250	70.043747	7.717500
225.334000	23.668001	1104.649048	16.458750	65.056252	1.400000
76.311005	-77.287003	942.999023	44.498123	102.563126	-0.271250
9.760000	98.271004	875.838013	25.825624	99.434998	8.028125
-43.493000	65.879997	668.987000	12.713750	77.179375	19.267500
-53.618999	-25.986000	609.939026	15.964375	74.086250	13.768125
-139.141006	61.792999	525.393005	10.285625	83.776878	1.671250
-241.132996	-8.479000	573.400024	-4.200000	30.944374	7.183750
-253.760010	82.106003	599.630005	-1.155000	12.210625	-7.542500
-335.134003	149.876999	664.168030	-0.538125	0.013125	-7.713125
-303.902008	145.667999	779.153015	1.496250	-15.968750	-7.529375
-279.684998	198.067001	838.018005	-3.535000	-14.385000	-20.680626
-320.433014	303.048004	933.726990	4.781875	-22.417500	-27.002501
-248.331009	280.050995	1023.458008	17.158751	-31.749374	-33.805626
-123.098000	364.963013	1027.178955	19.700624	-29.146250	-39.956875
-197.701004	327.143005	1009.671997	12.280625	-14.043750	-39.974377
-31.964001	280.966003	1011.257996	6.444375	-14.301875	-46.908749
-47.396999	115.350998	975.572998	35.630001	21.236250	-72.187500
-183.671005	112.362000	929.395996	23.086876	-17.005625	-78.675629
-135.419998	127.734001	1094.035034	58.327499	-27.855625	-81.418747
-201.544006	-17.629000	1056.458984	27.518749	-30.235624	-58.323124
-109.556000	61.366001	1072.014038	-3.889375	-1.238125	-32.917500
-196.969009	-124.318001	1220.671021	-22.745625	10.539375	-7.021875
-146.460999	-181.109009	1022.543030	-23.393126	9.340625	12.088125
-329.338989	-224.541000	982.527039	-4.987500	11.261250	-5.442500
-305.549011	-212.279999	962.335999	0.678125	3.570000	-18.458124
-283.833008	-166.164001	929.762024	7.555625	-4.926250	-34.488125
-220.880997	-61.732002	729.864990	-3.985625	-6.803125	-20.768126
-225.699997	-105.896004	738.283020	-5.525625	-7.385000	-15.141875
-151.402008	-27.572001	738.221985	7.091875	-9.856875	-27.435625
-86.925003	98.576004	725.716980	29.732500	-35.336876	-43.736874
-112.911003	32.574001	699.609009	5.193125	-20.181875	-36.465626
-57.889000	36.417000	482.510010	-5.630625	-17.788750	-34.702499
-48.007000	40.809002	740.845032	-8.806875	-13.269375	-9.445625
-88.023003	-5.246000	562.725037	-21.599375	-57.233749	8.211875
20.496000	-83.326004	876.752991	-25.204374	-61.267502	4.375000
154.695999	0.976000	1174.799072	-2.996875	-72.458748	-9.349375
153.475998	114.252998	1538.480957	27.348125	-18.698750	1.316875
4.331000	-242.048004	1549.400024	35.472500	-12.241250	-13.790000
29.707001	244.548996	1856.718018	10.298750	-34.671875	3.570000
-13.969000	73.321999	1520.181030	32.130001	-5.350625	20.956249
-121.877998	145.240997	1253.062012	51.108749	7.761250	5.337500
-56.303001	149.632996	1116.483032	9.638125	-32.361874	-14.603750
58.743000	133.346008	1063.901001	-39.130001	-38.631248	-9.480625
120.048004	-14.213000	1059.813965	-43.509377	-2.498125	0.866250
60.389999	-26.413000	1024.800049	-31.976875	22.093750	2.616250
98.027000	-41.114002	962.580017	-3.753750	-0.586250	9.178750
75.212997	-100.710999	968.497009	7.520625	-1.531250	7.966875
67.404999	-119.316002	982.466003	2.178750	-5.149375	4.764375
97.356003	-163.662994	1052.188965	1.159375	8.710625	8.631875
110.043999	-261.994995	1052.982056	15.903125	2.520000	16.660000
100.345001	-249.612000	1166.990967	16.716875	21.800625	24.031876
76.920998	-236.802002	1169.125977	10.141250	9.870000	25.348749
256.993011	-196.969009	1206.275024	2.975000	-24.360001	29.706249
102.968002	-174.520996	1155.583984	-6.838125	-5.372500	48.829376
233.630005	-118.523003	884.377991	-3.906875	-34.588749	25.514999
142.862000	111.386002	1003.023010	-4.908750	-13.877500	38.618126
294.996002	42.517002	844.117981	-16.909374	-19.026875	73.228752
234.362000	43.431999	962.702026	-36.465626	-28.315001	84.756874
319.945007	78.263000	922.625000	-34.623749	-7.183750	83.614998
365.634003	125.781998	917.195984	-26.617500	1.754375	63.026249
264.191010	152.988007	1020.468994	-11.011875	4.571875	41.943127
254.675003	169.214005	947.757019	-1.373750	2.380000	31.963751
153.048996	161.833008	1031.692993	2.533125	-11.060000	28.621250
167.445007	136.457001	965.691040	14.013125	-12.075000	6.405000
179.584000	167.750000	1088.728027	16.152500	-0.971250	14.035000
201.604996	-0.854000	1091.594971	5.923750	2.485000	17.285625
206.119003	107.116005	1086.898071	12.110000	-12.543125	9.113125
175.557999	-29.829000	1192.671997	11.221875	-0.074375	13.549375
143.472000	-34.952999	1242.875000	16.795626	6.413750	2.765000
152.317001	-78.995003	1367.498047	25.703125	14.428750	2.721250
82.289001	-13.969000	1491.328003	18.952499	24.876249	12.053125
85.034004	-29.889999	1384.578003	24.871876	42.923126	21.336876
148.229996	-69.600998	1379.820068	23.843750	58.939999	25.983126
141.520004	-96.868004	1249.890015	19.630625	64.714996	9.165625
100.100998	20.557001	1093.485962	-1.067500	9.113125	7.866250
189.832001	-19.947001	1074.088013	1.176875	20.334999	25.615625
117.791000	-43.249001	945.255981	-4.248125	100.091248	26.376875
50.507999	96.501999	874.434998	11.423125	69.540627	30.384375
74.359001	-123.708000	653.798035	36.238125	115.294373	17.679375
-104.249001	39.466999	448.472015	11.366250	38.863125	-11.742500
-81.313004	109.861000	451.460999	14.555625	30.288124	-11.200000
-248.941010	24.095001	597.861023	15.400000	36.859375	-10.123750
-256.139008	167.201004	718.824036	0.980000	14.450625	-14.905625
-248.697006	198.128006	823.134033	-1.137500	-0.131250	-11.213125
-233.141998	219.539001	899.140015	-0.336875	3.780000	-13.273750
-202.641998	324.276001	925.126038	1.715000	0.774375	-6.024375
-204.472000	280.539001	923.661987	-4.108125	6.925625	-3.539375
-261.506989	276.085999	960.689026	-13.352500	15.281875	-14.258125
-243.268005	292.800018	1028.399048	-10.434375	2.375625	-34.326248
-268.583008	231.556000	899.384033	-3.338125	-18.239374	-50.850624
-225.456009	215.695999	1060.729004	14.875000	-7.227500	-60.943748
-188.184998	97.051003	970.327026	15.281875	-21.389376	-62.474998
-252.173996	-4.636000	1138.321045	40.324375	13.558125	-51.730000
-186.721008	56.119999	993.507019	21.249374	4.484375	-61.669998
-301.157013	2.135000	974.414001	13.663125	-11.121250	-66.031876
-252.417999	-44.285999	959.895996	15.846250	-10.657500	-68.569374
-248.209000	-80.153999	901.153015	7.004375	-12.503750	-61.897499
-227.102997	-94.793999	938.606995	-2.100000	-20.457500	-56.761250
-246.684006	-188.124008	884.439026	-0.888125	-11.051250	-46.694374
-245.830002	-231.494995	945.988037	-1.015000	-10.587500	-37.467499
-265.838013	-291.824005	954.467041	-2.520000	-5.818750	-25.685625
-244.427002	-256.566010	979.049988	-15.653750	-11.803750	-22.321251
-230.580002	-211.914001	914.755981	-8.023750	-5.945625	-19.910625
-128.283005	-125.843002	763.171021	1.159375	-18.340000	-21.914375
-70.638000	-80.276001	689.239014	-2.830625	-13.588750	-12.687500
-93.757004	-40.809002	554.551025	-13.374375	-30.393126	-11.602500
-41.663002	37.209999	515.877014	-3.276875	-25.436251	-0.017500
-166.408005	-69.905998	448.289001	12.158125	6.304375	2.541875
-149.328003	-51.910999	693.325989	-2.275000	-45.215626	-6.125000
-8.540000	18.849001	982.954041	2.817500	-91.559998	-25.208750
137.432999	22.387001	1092.510010	18.449375	-126.336876	-30.047501
225.516998	36.660999	1089.947998	33.915001	-94.451874	-9.861250
294.446991	-10.126000	1083.909058	30.848125	-61.779373	-0.831250
207.705002	-22.021000	1073.661011	36.373749	-21.013124	-4.768750
246.867004	48.739002	1319.674072	15.299375	-19.004999	-10.027500
248.514008	146.949005	1440.453979	26.761875	26.595625	-3.386250
102.663002	75.334999	1313.817993	30.060625	5.989375	-3.316250
203.069000	137.981995	1485.959961	-15.172500	-18.453751	1.785000
213.865997	171.471008	1453.995972	-25.549999	-70.402496	-2.839375
315.553009	116.327003	1359.933960	-35.223125	-75.079376	-2.966250
284.321014	41.907001	974.596985	-23.502501	2.695000	6.820625
285.601990	-86.742004	933.239014	-26.464375	41.816250	18.825624
251.930008	-85.034004	853.755981	-10.171875	46.948124	8.146250
236.436005	-136.578995	900.116028	7.376250	31.920000	3.749375
201.421997	-221.857010	902.556030	14.595000	50.513748	6.304375
184.464005	-234.910995	988.749023	15.907500	22.181250	9.524375
266.020996	-307.135010	1057.557007	11.816875	4.536875	29.763124
200.934006	-377.285004	1069.573975	20.759375	-23.323126	29.255625
331.412994	-278.953003	998.020996	12.267500	-32.790627	25.641874
299.265991	-180.376999	931.713989	-3.823750	3.150000	45.758125
318.298004	-161.893997	1101.171997	25.707500	57.855000	50.583752
193.369995	70.638000	932.080017	21.043751	47.893124	52.832500
235.094009	88.511002	1094.645020	21.013124	36.684376	57.911877
164.029007	219.173004	1024.494995	0.551250	45.644375	62.238750
120.841003	275.415009	950.075012	-20.711250	21.433125	66.106247
163.723999	245.341995	1015.955017	-36.229374	2.948750	63.761250
236.923996	232.593002	947.635010	-27.195000	12.788125	48.781250
99.307999	304.938995	912.682007	-20.024376	22.662500	39.366249
117.791000	222.650009	932.018982	-24.141251	10.368750	33.941250
30.500000	127.063004	1017.785034	14.148750	4.768750	21.800625
42.821999	109.678001	972.218018	23.471874	-0.126875	20.492500
31.293001	122.122002	1064.937988	37.874374	-8.190000	17.885000
14.884000	91.377998	1157.047974	22.964375	-6.908125	16.060625
27.572001	69.967003	1253.733032	10.661875	-11.838750	13.216875
25.010000	18.788000	1374.696045	8.631875	-16.625000	12.613125
29.951000	-4.697000	1455.886963	2.751875	-10.924375	6.523125
-15.128000	46.909000	1399.645020	19.166876	-3.237500	4.834375
85.948997	68.014999	1448.261963	10.058125	11.480000	9.502500
27.632999	70.638000	1404.098022	-13.597500	11.799375	12.643750
133.834000	-74.969002	1303.692017	-20.873125	32.383751	22.741249
240.096008	20.923000	1157.109009	2.401875	61.621876	14.196875
111.874001	-21.289000	962.153015	24.928749	66.797501	5.355000
108.092003	45.567001	690.703003	21.756874	39.624374	1.706250
-23.973000	91.744003	673.927979	7.914375	71.894379	2.231250
-50.447002	52.887001	588.101013	-5.066250	80.285622	7.778750
-125.355003	69.174004	429.928009	-8.561875	57.351875	4.200000
-163.662994	47.396999	504.347992	-1.172500	54.512501	-1.785000
-233.934998	56.669003	492.696991	-4.445000	23.428125	-4.121250
-262.605011	21.228001	799.710022	3.338125	5.945625	-4.532500
-276.085999	70.333000	862.783997	3.985625	-20.527500	-8.058750
-289.322998	142.313004	956.601990	1.872500	-7.966875	-3.093125
-223.320999	245.220001	937.692017	3.683750	-19.171249	-12.950000
-212.158005	305.365997	946.658997	-2.275000	-11.466875	-20.448750
-202.947006	401.075012	938.119019	-2.043125	-11.768750	-28.673750
-190.442001	392.169006	905.606018	10.491250	-23.603125	-31.801874
-177.632004	347.821991	1106.784058	13.584375	-18.156250	-44.655624
-53.802002	338.610992	970.815002	4.379375	-5.053125	-55.177502
-124.500999	177.693008	1041.453003	21.161875	-12.232500	-56.227501
-90.279999	-15.006001	1010.830994	28.039375	0.621250	-74.694374
-16.836000	39.345001	1057.008057	35.713123	-4.856250	-88.641876
-93.818001	22.814001	1112.822998	25.676874	-12.783750	-76.282501
-39.101002	-18.726999	1020.652039	33.801250	-43.430626	-58.445625
-112.179001	-120.353004	1115.750977	8.610000	1.273125	-30.625000
-121.451004	-114.131004	1048.406982	-23.240000	-3.631250	-26.516874
-139.568008	-150.487000	1070.000977	-40.950001	-9.375625	-6.960625
-259.920990	-229.360001	963.617004	-16.073750	17.823750	-0.813750
-277.671997	-266.997009	983.991028	-6.916875	-7.039375	-10.237500
-173.850006	-183.365997	841.556030	1.295000	-6.842500	-44.423752
-42.151001	-102.418999	809.104004	-4.545625	-17.622499	-41.706875
-7.015000	-29.524000	735.598999	10.841250	-11.567500	-26.433750
-24.644001	7.747000	718.702026	31.924376	22.089375	-6.409375
-96.806999	52.948002	575.473999	30.988125	12.053125	-4.878125
-90.951004	-60.389999	652.578003	-0.030625	-3.675000	-11.471250
-115.717003	95.891998	587.429993	-42.441875	-18.615625	-16.244375
-97.294998	23.729000	448.593994	-49.411251	-72.541878	-4.943750
50.935001	12.749001	824.171021	5.893125	-48.461876	5.359375
42.761002	-16.958000	994.299988	16.721251	-62.203751	10.587500
115.290001	31.598000	1703.242065	6.938750	-51.804375	-11.038125
54.656002	120.169998	1944.130981	14.984375	-63.109375	-22.575001
102.601997	119.071999	1534.577026	20.978125	-53.598125	-17.486876
18.483000	193.858002	1290.454956	27.050625	-23.874374	-6.282500
49.532001	120.597000	1184.925049	11.313750	2.047500	7.376250
76.982002	88.206001	1091.046021	0.787500	-2.362500	7.052500
137.615997	87.108002	1123.498047	2.524375	4.445000	9.826250
116.327003	-38.063999	1108.979980	-4.663750	10.101875	6.409375
124.988998	18.788000	1044.563965	-5.127500	8.933750	-3.338125
120.169998	-89.121002	982.039001	3.906875	12.026875	5.687500
133.468002	-104.431999	995.520020	7.765625	14.240625	13.566875
134.688004	-254.065002	1042.855957	9.502500	19.066250	29.176874
154.025009	-275.170990	1017.296997	14.682500	15.575000	27.361250
166.285995	-244.244003	927.992981	19.451250	13.501250	33.013748
148.108002	-301.889008	966.301025	8.518125	16.187500	43.575001
199.408997	-205.630997	940.681030	3.508750	1.946875	45.263748
194.834000	-114.436005	916.036987	-4.991875	12.044375	62.737499
185.867004	-66.368004	1089.520996	-6.776875	31.421249	61.188751
153.231995	96.075005	1176.323975	-13.063750	6.475000	68.739998
226.309998	165.798004	1194.197021	-24.661875	-24.351250	62.269375
343.247009	317.200012	1151.009033	-6.860000	19.862499	43.032501
74.114998	472.018005	1050.359009	-10.185000	9.078125	38.031876
134.932007	475.128998	972.096008	1.461250	-11.795000	30.795626
75.701004	437.553009	827.770020	7.398125	20.374374	26.481874
-36.112000	366.061005	870.104004	4.287500	17.521875	28.910000
-2.379000	279.075012	868.152039	8.868125	7.936250	26.573750
42.212002	187.147995	911.705994	10.005625	-2.782500	21.796249
66.306999	122.122002	969.778015	0.301875	-12.954375	12.267500
31.415001	40.260002	1086.714966	-4.213125	-16.344999	3.902500
75.762001	-21.106001	1063.901001	-1.233750	-18.121250	-2.983750
36.173000	38.063999	1171.200073	4.598125	-23.905001	-10.255000
0.610000	-70.150002	1199.381958	-0.468125	-39.143124	-4.007500
151.524002	85.034004	1404.036987	6.855625	-35.476875	-6.671875
99.369003	84.912003	1562.026978	0.791875	-57.426250	16.699375
252.052002	-20.801001	1598.505005	0.341250	2.800000	27.238750
220.454010	37.332001	1629.187988	-10.128125	29.666876	21.787500
304.695007	-58.438000	1558.977051	-8.242500	50.168125	16.611876
351.360016	-2.318000	1160.098022	3.110625	66.399376	10.399375
228.688995	131.333008	983.929993	23.318750	94.955002	-15.439375
148.352005	68.807999	722.971985	13.755000	85.911873	3.403750
68.197998	78.018997	397.720001	4.440625	105.245003	-0.306250
-131.393997	0.732000	342.881012	-15.172500	91.875000	-12.788125
-142.800995	113.764999	274.072998	-26.468750	51.108749	-8.890000
-269.376007	14.457000	381.494019	-16.135000	50.710625	-5.735625
-283.162018	88.084000	527.955017	-5.451250	26.101250	-7.879375
-332.694000	45.445000	637.083984	18.593750	23.030001	-3.784375
-321.835999	39.345001	832.223022	21.096251	2.270625	-0.660625
-306.769012	169.580002	976.000000	8.120000	0.581875	-1.846250
-306.585999	267.118988	962.092041	2.266250	-5.775000	-9.008125
-319.884003	314.149994	890.905029	3.815000	-7.752500	-16.270624
-319.518005	342.332001	962.580017	0.603750	11.698750	-12.783750
-314.210999	253.455002	813.312988	-7.013125	-4.773125	-30.069374
-191.173996	322.263000	843.996033	24.368750	-20.698126	-50.220627
-186.111008	180.925995	929.091003	29.903126	-32.532501	-79.476250
-11.163000	325.679016	833.747986	17.136875	-24.097500	-84.476875
-237.839005	270.046997	1043.893066	20.125000	-21.035000	-69.448753
-175.923996	32.452000	1037.732056	6.615000	-29.338751	-47.048752
-77.165001	-3.965000	1293.505005	6.313125	-23.174376	-35.485626
-13.054000	-142.862000	1139.723999	-22.649376	-36.347500	-18.668125
-109.433998	-255.102005	1144.665039	0.354375	-25.996250	-23.261875
-196.359009	-328.240997	1108.308960	2.200625	-6.221250	-38.066875
-178.181000	-262.360992	1078.602051	-0.616875	6.256250	-34.387501
-265.654999	-278.526001	1138.015991	15.137500	11.554375	-36.343124
-166.712997	-245.098007	1005.218994	10.797500	3.259375	-37.471874
-203.130005	-139.690002	907.924011	13.580000	8.176875	-34.457500
-200.141006	-203.374008	820.267029	2.476250	11.173750	-28.883751
-171.471008	-86.193001	599.507996	-9.104375	6.251875	-16.200624
-166.957001	-65.696999	592.614990	5.053125	7.822500	-6.413750
-69.479004	-68.564003	534.543030	8.054375	-28.993126	-0.227500
-85.643997	8.174000	548.877991	8.776250	-24.141251	6.724375
-34.342999	12.505000	709.734985	-6.335000	-28.411249	16.016874
-66.368004	109.617004	602.802002	-19.324375	-76.768127	17.548124
113.154999	-65.391998	965.934998	-22.378124	-47.928123	6.540625
10.187000	70.028000	1208.471069	-36.273125	-28.284374	-8.837500
61.549000	-117.973999	1311.072998	-35.568748	-64.006248	-5.311250
72.590004	-71.736000	1593.990967	-19.341875	-52.556873	-1.203125
12.932000	26.047001	1417.884033	29.920626	-33.945625	7.577500
128.283005	-41.358002	1298.506958	25.742500	-16.283751	-4.738125
-26.352001	69.417999	1146.006958	15.395625	0.844375	-11.943750
16.348000	63.623001	1191.696045	9.038750	-10.990000	-8.745625
117.668999	-14.884000	1194.562988	2.008125	9.419375	-4.165000
76.920998	-23.241001	1023.335999	0.223125	18.558750	-3.657500
123.952003	-29.829000	1020.041992	1.347500	-1.050000	-7.669375
116.327003	-34.160000	948.244995	2.747500	6.168750	-9.476250
80.764000	1.403000	949.160034	4.068750	1.841875	-6.916875
98.514999	-53.558002	1005.341003	0.148750	-5.656875	-2.948750
107.787003	-52.826000	971.729980	2.786875	-10.167500	-2.030000
114.862999	-133.346008	1008.513000	1.942500	-0.748125	5.250000
125.538002	-196.298004	970.205017	3.745000	-7.371875	5.438125
127.001999	-241.438004	970.510010	3.513125	-5.888750	12.796875
137.738007	-309.330994	964.471008	1.106875	-6.527500	24.373125
142.069000	-338.916016	933.666016	3.377500	-16.913750	30.716875
266.692017	-312.563995	948.549988	8.859375	-21.608126	42.450626
207.033997	-326.472015	988.505005	-3.101875	-15.968750	61.691875
207.278000	-218.867996	1203.957031	-1.736875	-22.640625	67.418747
278.282013	-92.354004	1236.836060	-12.731250	6.221250	67.204376
369.782013	53.375000	1189.011963	-13.619375	0.546875	57.754375
299.571014	271.328003	1058.289062	-30.839375	-1.789375	47.678749
182.817001	115.167999	942.999023	-57.281876	-7.945000	42.310623
188.917007	358.192017	1016.382019	-13.776875	27.295626	32.099377
47.702000	305.061005	894.809021	9.511250	7.008750	36.946877
101.808998	197.884003	836.492981	26.853750	2.450000	33.494999
123.890999	191.600998	922.259033	49.577499	-0.336875	30.213751
153.110001	73.993004	931.653015	24.692499	7.739375	21.463751
104.005005	68.320000	1141.066040	11.064375	-1.509375	6.028750
144.387009	-17.263000	1236.348022	2.043125	-0.385000	12.381250
109.433998	1.769000	1306.071045	8.623125	14.070000	12.285000
106.139999	-6.527000	1451.250977	15.500625	-5.123125	8.421875
117.852005	12.871000	1318.880981	21.056875	7.704375	3.058125
110.959000	22.631001	1525.061035	4.086250	43.706249	13.851250
23.607000	-193.736008	1237.263062	-18.208750	28.126875	14.765625
127.246002	-73.809998	1561.112061	-8.933750	32.895626	24.574375
143.227997	-142.800995	1208.958984	-10.154375	48.724377	44.983749
67.466003	-238.510010	1160.952026	9.765000	68.477501	27.155624
91.134003	0.915000	832.833008	16.743126	76.396248	19.267500
-7.747000	-14.640000	723.216003	13.873125	88.510628	9.703750
-98.697998	-31.476000	513.192993	-7.476875	63.306252	0.000000
-88.084000	117.913002	392.901001	-2.108750	46.090626	-4.086250
-207.216995	87.961998	381.188995	4.952500	42.608124	1.316875
-278.709015	71.736000	456.036011	-8.338750	21.923124	-2.502500
-287.737000	93.390999	592.432007	3.298750	-9.734375	-8.238125
-326.045013	115.473000	771.101013	9.585625	8.483125	-4.038125
-316.407013	117.242004	863.028015	2.349375	-20.702499	-1.098125
-273.157990	168.055008	910.669006	9.310000	-26.145000	-24.040625
-201.056000	312.259003	982.283020	7.126875	-37.445625	-26.543125
-65.636002	250.466003	1025.044067	10.259375	-24.010000	-19.201876
-137.798996	261.446014	1074.759033	11.068750	-9.511250	-22.378124
-104.614998	195.688004	1063.535034	32.134377	-10.373125	-37.673126
-172.934998	182.878006	1084.885010	18.926250	-4.291875	-33.608749
-107.420998	225.699997	996.191040	23.047501	-6.081250	-39.711876
-96.501999	178.852005	1060.484985	0.686875	-6.518750	-44.366875
-119.621002	150.852997	945.927002	-18.055626	-7.389375	-40.665627
-52.277000	38.430000	1125.023071	-5.096875	9.642500	-57.526875
-26.718000	-20.313000	1139.846069	-0.367500	5.048750	-52.552502
-103.821999	-237.900009	1135.088013	-6.440000	0.503125	-45.101875
-43.431999	-274.195007	938.729004	-2.756250	25.221874	-43.798126
-296.399017	-254.186996	1057.862061	-1.911875	12.521250	-33.123123
-218.624008	-302.682007	845.643005	-11.375000	7.476875	-22.378124
-343.795990	-203.923004	999.302002	-2.550625	14.507500	-17.906876
-299.876007	-264.373993	962.518982	-13.575625	8.260000	-11.983125
-239.608002	-300.669006	804.346008	-5.884375	0.358750	-3.447500
-249.917007	-216.123001	879.254028	1.570625	-7.367500	-7.936250
-137.188995	-198.981995	777.322998	-2.056250	-11.003125	-11.965625
-94.733002	-12.688000	681.979980	-7.665000	-11.939375	-6.711250
-120.109001	22.753000	552.965027	-7.778750	-26.740000	-0.196875
-118.828003	-78.995003	690.764038	-12.901875	-24.416876	-8.023750
-72.834000	55.388000	827.526001	-8.063125	-27.873125	-28.433125
10.065001	-9.150001	698.450012	15.478750	-79.782501	-35.415627
30.927000	-75.274002	943.791992	-2.708125	-65.275002	-24.657499
118.950005	-146.095001	856.744995	-9.804375	-68.070625	-18.720625
118.340004	-69.417999	989.114990	-4.073125	-22.098125	-14.953750
20.496000	-117.242004	1377.868042	-22.951250	-32.453751	-11.720625
-37.881001	-120.963005	1454.057007	22.968750	23.966249	-2.100000
-48.129002	-124.683998	1600.457031	9.878750	-21.332500	-0.931875
16.653000	-86.193001	1395.313965	2.034375	-33.184376	-6.120625
30.866001	-81.801003	1327.055054	7.227500	-22.006250	-10.154375
92.110001	-119.499001	1193.343018	2.808750	-12.031250	-2.345000
90.524002	-99.002998	1037.488037	-0.371875	1.408750	1.369375
87.718002	-153.903000	971.486023	2.541875	4.361875	0.988750
94.123001	-192.699005	920.489990	0.293125	6.925625	-0.945000
72.041000	-274.011993	932.812012	-2.751875	6.536250	8.750000
137.188995	-397.842010	950.746033	4.742500	1.509375	19.201876
135.175995	-410.957001	918.538025	14.402500	5.158125	36.548752
204.777008	-407.662994	872.910034	18.633125	-2.878750	30.983749
109.800003	-257.175995	1030.350952	27.059376	0.805000	24.316250
175.985001	-162.992004	974.841003	36.067501	-9.506875	34.829376
228.567001	-12.200000	981.673035	39.646252	-16.318750	42.332500
123.280998	52.399002	1123.558960	29.504999	2.314375	50.163750
224.053009	81.251999	1013.575989	-6.991250	-29.198750	59.451874
260.774994	200.690002	1072.989990	-22.903126	-42.581875	63.980000
250.770996	75.639999	1040.781982	-40.534374	2.025625	59.049374
249.246002	245.464005	1098.244019	-47.376877	-0.743750	53.086250
177.266006	158.173004	1010.708984	-4.086250	2.638125	53.073124
88.023003	219.112000	991.127991	17.696875	-4.038125	32.703125
124.623001	190.686005	949.098999	16.664375	-11.143125	28.358749
166.774002	113.338005	994.299988	22.058750	-6.107500	11.799375
140.483002	134.871002	1088.362061	20.356874	-4.558750	1.071875
175.863007	89.669998	1167.661987	16.988125	-3.578750	1.785000
140.544006	79.605003	1406.477051	33.897499	3.963750	4.239375
139.934006	42.639000	1461.620972	41.260624	13.225625	6.908125
110.776001	-22.691999	1360.604980	12.740000	15.251250	10.456250
132.003998	-9.333000	1280.451050	7.148750	27.435625	5.718125
230.031006	62.159000	1205.786987	-11.169375	0.056875	7.783125
161.466995	-13.298000	1028.276978	33.634998	54.788124	3.731875
45.079002	-55.205002	1189.072998	20.492500	69.409378	7.695625
140.727005	49.410000	967.825989	35.030624	50.898750	-3.246250
-25.315001	25.071001	885.598022	23.699375	86.498123	-4.628750
-70.760002	56.608002	646.905029	-16.275000	73.027496	22.203125
-12.688000	51.179001	694.668030	11.532500	74.908752	12.201875
-117.668999	124.683998	575.901001	17.246250	48.593124	-11.729375
-115.778000	208.436996	558.760010	4.760000	13.715625	-5.722500
-166.469009	221.369003	679.174011	-19.166876	12.368125	-2.025625
-136.274002	207.522003	851.682007	-7.621250	-16.931250	-4.449375
-137.250000	239.608002	952.880981	-3.653125	-17.626875	-14.166250
-156.770004	287.920013	953.186035	-4.834375	-20.234375	-21.883751
-154.940002	352.885010	1078.723999	-11.694375	-13.536250	-32.108124
-73.504997	337.208008	1037.061035	-16.078125	-13.426875	-34.015625
-180.559998	396.744019	1193.648071	-8.951250	9.292500	-55.365623
56.791000	309.696991	1011.562988	-25.003124	-13.702500	-61.985001
36.112000	167.384003	854.731995	-8.347500	-9.572500	-52.005627
-52.154999	14.274000	886.452026	20.173124	1.439375	-52.141251
-30.316999	-77.530998	937.387024	8.793750	-12.070625	-66.412498
-58.132999	-188.977997	1116.848999	14.656250	13.851250	-55.400623
-49.593002	-280.234009	1027.789062	10.425625	-6.374375	-55.492500
-125.903999	-298.533997	1103.124023	12.131875	5.915000	-48.860001
-61.487999	-264.312988	1043.953979	14.008750	-14.083125	-52.906876
-58.865002	-190.930008	1001.681030	8.255625	-3.771250	-38.692501
-172.141998	-228.201004	1048.712036	-5.691875	11.204375	-18.020624
-157.380005	-238.570999	888.160034	-20.282499	15.680000	2.331875
-234.362000	-272.182007	846.375000	-19.945625	7.271250	-6.545000
-167.811005	-141.337006	641.354004	-13.365625	-13.177500	-31.674999
-64.111000	-118.096001	626.348022	35.161877	-19.070625	-14.188125
-3.172000	-48.250999	569.434998	23.003750	-9.279375	-4.305000
-77.042999	-36.234001	566.202026	3.150000	5.967500	5.521250
-68.014999	47.275002	584.319031	22.181250	-41.654373	1.911875
-6.344000	17.690001	972.218018	43.198750	-16.021250	3.867500
126.696999	-30.866001	1014.674011	28.516251	-106.400002	-6.807500
253.089005	70.455002	936.593994	-0.905625	-87.228752	-12.337500
89.487000	163.236008	1229.638062	-29.238125	-58.498123	-0.074375
219.050995	97.112000	1311.072998	-50.456875	-59.123749	10.688125
151.035995	52.216000	1390.800049	-20.754999	-6.055000	20.208124
131.638000	-109.007004	1419.836060	-34.133751	-0.118125	13.168750
68.076004	-4.636000	1318.270996	-23.121876	-14.179375	-1.955625
143.960007	10.492001	1352.552979	5.788125	-1.601250	-4.589375
119.621002	-23.912001	1268.617065	13.225625	13.798750	-3.434375
106.811005	-45.323002	1129.354004	7.704375	15.509375	-3.854375
134.199997	-86.315002	994.483032	8.605625	4.711875	-6.037500
146.400009	-76.920998	908.106995	3.679375	1.513750	-4.090625
165.249008	-136.578995	916.525024	2.471875	4.786250	0.971250
145.667999	-182.512009	916.708008	6.155625	-1.334375	0.140000
175.436005	-243.512009	925.004028	6.636875	-3.294375	6.378750
178.669006	-293.653992	996.434998	9.161250	-10.163125	15.036875
245.281006	-344.772003	984.723022	18.112499	2.598750	19.788124
189.039001	-167.688995	984.296021	21.345625	-0.730625	16.187500
229.908997	-85.948997	1078.723999	15.688750	16.576876	30.764999
231.311996	-144.996994	1065.974976	7.490000	3.530625	42.630001
186.294006	-48.129002	1069.513062	16.384375	-5.866875	40.858124
222.223007	-27.267000	1086.654053	16.104376	22.872499	39.921875
168.908997	31.842001	979.781982	7.630000	22.653749	40.753124
153.110001	85.705002	1091.594971	4.869375	1.491875	46.821251
228.322998	87.047005	944.096985	-12.543125	-11.431875	69.754997
221.369003	93.269005	955.869995	-16.174376	-7.910000	57.325626
178.181000	265.593994	973.804016	-8.050000	8.636250	36.859375
176.046005	275.963989	916.768982	-1.391250	-3.246250	30.979376
173.850006	261.080017	1031.204956	8.837500	-17.093124	25.895624
158.844009	295.545013	994.361023	14.013125	-18.427500	20.269375
176.167999	229.482010	1019.005005	6.982500	-21.262501	17.066875
170.007004	158.417007	1112.274048	15.933750	1.365000	11.624375
173.667007	135.115005	1198.344971	21.546875	0.385000	10.670625
198.555008	70.455002	1355.664062	20.750626	0.581875	11.921875
160.735001	48.617001	1340.657959	1.220625	24.390625	16.502501
78.018997	-31.720001	1332.666992	-12.105625	26.337500	20.505625
189.893005	-9.699000	1282.586060	6.230000	16.318750	8.273125
111.630005	-84.667999	1231.102051	27.995625	38.294376	4.799375
120.963005	60.329002	1300.458984	26.324375	18.641874	12.267500
110.959000	-45.201000	1107.821045	24.381874	48.601875	18.239374
138.591995	148.412994	1141.737061	30.279375	50.881248	7.770000
172.569000	168.177002	1085.983032	17.219999	48.334999	18.178125
222.589005	191.356995	892.247009	9.891875	66.447502	19.149376
45.688999	211.669998	543.815002	-15.124375	49.796249	-2.345000
-23.241001	132.248001	517.585022	-34.138126	62.072498	14.857500
-140.483002	101.015999	574.986023	-28.293125	57.973125	8.605625
-206.546005	114.557999	608.963013	-17.320625	32.528126	2.734375
-183.061005	111.996002	726.205017	-12.810000	35.437500	0.490000
-190.990997	171.166000	755.424011	-7.612500	12.350625	-5.547500
-195.688004	215.574005	904.934998	-6.881875	0.853125	-13.168750
-236.985001	286.639008	914.329041	-4.217500	-5.070625	-15.636250
-187.087006	326.289001	1022.116028	16.016874	-14.708750	-25.536875
-137.188995	271.511017	1084.336060	-3.758125	3.850000	-30.200624
-123.585999	183.244003	1042.795044	-2.279375	1.636250	-41.173126
-171.531998	101.260002	1035.597046	-16.760626	15.115625	-49.866249
-132.186996	159.697998	920.307007	-1.487500	-5.893125	-61.818748
-152.378006	14.091001	981.246033	1.688750	7.262500	-57.360626
-198.615997	18.971001	896.273010	7.507500	-7.192500	-57.413124
-151.279999	-87.351997	1017.723999	26.989374	0.896875	-46.410000
-243.024002	-108.214005	979.965027	20.243126	-4.357500	-41.733124
-150.425995	-178.546997	1087.995972	21.459375	0.498750	-34.956249
-197.884003	-240.828003	992.592041	6.886250	-10.933125	-31.338125
-199.835999	-178.608002	1004.059998	14.389375	5.534375	-25.751249
-228.688995	-204.837997	880.718018	3.731875	-3.303125	-27.352501
-222.833008	-164.272995	871.507019	4.405625	-0.695625	-34.965000
-154.757004	-117.973999	793.609985	-11.243750	-10.758125	-32.165001
-90.524002	-61.061001	581.390991	-6.216875	-15.155000	-21.686874
-64.538002	-73.016998	665.449036	1.697500	20.313126	-2.126250
-168.055008	-74.786003	544.791016	-31.176250	7.577500	10.745000
-177.693008	21.289000	498.858002	-21.494375	-69.851250	3.653125
-70.028000	-154.634995	668.437988	7.879375	-27.886250	-8.347500
-99.186005	-54.961002	733.281006	-7.231875	-18.606874	-14.433125
-24.278000	-79.971001	1012.661011	8.846250	-38.198124	-11.602500
25.681000	-20.252001	1160.525024	-2.716875	-18.738125	-11.900000
-12.993000	100.405998	1364.753052	11.221875	-60.278751	13.610625
-3.721000	-147.863998	1377.380005	3.005625	-70.966873	21.778749
-75.334999	22.814001	1507.249023	-1.491875	-18.221874	7.310625
-71.553001	-19.580999	1394.216064	-9.016875	-49.791874	-3.136875
59.230999	-63.379002	1393.728027	-21.752501	-77.866249	-9.432500
108.397003	20.923000	1427.278076	4.895625	-34.995625	-14.078750
35.563000	-40.869999	1310.707031	6.190625	4.204375	-14.581875
52.094002	25.802999	1126.426025	-8.872500	-0.170625	-11.335625
147.681000	-150.548004	1073.416992	-7.490000	12.429375	5.446875
115.778000	-187.087006	1076.588989	0.818125	3.101875	4.379375
123.769005	-217.160004	998.447998	1.868125	9.152500	13.326250
103.211998	-291.519012	933.421997	1.898750	29.395624	23.830626
43.310001	-313.479004	821.548035	-2.292500	25.309376	30.244375
115.778000	-308.476990	858.453003	2.240000	8.413125	30.590000
80.398003	-248.514008	976.793030	9.935625	1.391250	25.694374
151.341003	-120.597000	989.908020	10.976875	-14.227500	22.990625
185.988998	-64.721001	1064.693970	15.610000	-6.050625	29.469999
170.556000	-15.067000	1059.813965	15.561875	-11.716250	36.224998
137.250000	121.756004	1024.067993	19.722500	-10.714375	33.228127
110.105003	87.351997	1026.264038	5.241250	-4.440625	41.531876
