A_X[mg]	A_Y[mg]	A_Z[mg]	G_X[dps]	G_Y[dps]	G_Z[dps]	
138.958008	39.406002	1047.979980	-25.773125	-27.597500	-28.949375
134.932007	43.126999	1047.492065	-25.961250	-27.641251	-29.049999
141.459000	45.383999	1048.346069	-26.009375	-27.663124	-29.159374
138.835999	36.783001	1045.174072	-25.961250	-27.763750	-29.190001
141.824997	38.430000	1044.197998	-25.974375	-27.768126	-29.093750
138.470001	40.625999	1048.285034	-25.991875	-27.754999	-29.163750
137.981995	42.212002	1049.443970	-25.904375	-27.750626	-29.150625
140.971008	47.885002	1051.822998	-25.536875	-27.838125	-28.984375
140.178009	39.955002	1052.615967	-25.847500	-27.811874	-29.032499
142.007996	35.501999	1057.435059	-26.018126	-27.816250	-29.120001
138.225998	36.722000	1051.213013	-25.668125	-27.763750	-29.010626
140.300003	38.307999	1054.994995	-25.821251	-27.715626	-28.988750
136.884003	46.421001	1044.503052	-25.738125	-27.803125	-29.084999
136.884003	36.904999	1042.124023	-25.891251	-27.654375	-29.211876
137.128006	36.600002	1042.368042	-25.825624	-27.741875	-29.128750
140.971008	41.785000	1044.320068	-26.110001	-27.689375	-29.084999
137.005997	43.310001	1049.749023	-25.851875	-27.719999	-28.975624
140.848999	44.164001	1048.712036	-25.720625	-27.855625	-29.098125
140.178009	38.612999	1050.053955	-25.698750	-27.737499	-29.190001
142.130005	36.355999	1049.199951	-25.633125	-27.890625	-29.264376
133.406998	38.979000	1047.248047	-25.528126	-27.750626	-29.006250
138.775009	40.504002	1052.432983	-25.672501	-27.763750	-28.888124
144.630997	44.469002	1050.297974	-25.510626	-27.671875	-28.966875
143.960007	43.675999	1047.735962	-25.580626	-27.549376	-29.098125
137.677002	38.125000	1047.979980	-25.598125	-27.588751	-29.211876
136.152008	37.820000	1047.858032	-25.506250	-27.698126	-29.093750
143.410995	37.698002	1050.053955	-25.746876	-27.575624	-28.953751
137.555008	44.957001	1049.078003	-25.694374	-27.676250	-29.032499
141.824997	41.114002	1050.420044	-25.611250	-27.719999	-28.940624
141.520004	43.554001	1052.494019	-25.948126	-27.772499	-29.128750
139.080002	34.465000	1047.858032	-25.948126	-27.772499	-29.023750
139.080002	34.465000	1046.394043	-25.847500	-27.772499	-29.023750
134.322006	43.126999	1046.394043	-25.685625	-27.776875	-29.010626
134.809998	46.177002	1047.492065	-25.523750	-27.790001	-28.984375
151.524002	44.285999	1049.199951	-25.449375	-27.811874	-29.071875
139.018997	41.968002	1044.686035	-25.698750	-27.776875	-29.220625
132.553009	34.098999	1045.540039	-26.363750	-27.860001	-29.365000
137.677002	38.612999	1053.042969	-25.703125	-27.754999	-29.246876
144.630997	43.493000	1047.187012	-25.589375	-27.763750	-29.049999
146.156006	40.992001	1043.099976	-25.729376	-27.794374	-29.076250
137.432999	41.236000	1046.821045	-25.764376	-27.895000	-29.207500
136.029999	32.390999	1049.199951	-25.628750	-27.754999	-29.014999
138.104004	41.541000	1046.515991	-25.746876	-27.825001	-28.984375
144.996994	47.640999	1047.248047	-25.825624	-27.790001	-28.984375
137.555008	43.066002	1046.150024	-25.803749	-27.724375	-29.102501
140.300003	34.709000	1047.369995	-25.567499	-27.663124	-29.211876
140.056000	34.892002	1048.833984	-25.860624	-27.803125	-29.168125
133.406998	40.687000	1045.540039	-25.549999	-27.636875	-29.146250
137.067001	41.480000	1049.139038	-25.480000	-27.750626	-29.045626
138.470001	41.968002	1046.150024	-25.698750	-27.860001	-29.032499
141.824997	36.417000	1047.735962	-25.703125	-27.803125	-29.124374
136.091003	32.818001	1050.359009	-25.589375	-27.737499	-29.159374
133.589996	34.952999	1045.661987	-25.685625	-27.768126	-29.133125
138.408997	40.809002	1045.661987	-25.471251	-27.728750	-29.098125
142.190994	42.090000	1044.076050	-25.707500	-27.680626	-29.111250
141.397995	37.820000	1052.067017	-25.834375	-27.654375	-29.137501
141.276001	36.112000	1047.248047	-25.488750	-27.654375	-29.067499
139.324005	40.077000	1045.174072	-25.375000	-27.671875	-28.905624
140.300003	38.063999	1046.638062	-25.655001	-27.711250	-29.150625
142.434998	42.882999	1044.807983	-25.563126	-27.781250	-29.071875
133.406998	42.821999	1046.942993	-25.676874	-27.728750	-29.076250
140.604996	37.942001	1042.368042	-25.440624	-27.580000	-29.155001
141.154007	34.526001	1046.942993	-25.466875	-27.658751	-29.168125
138.714005	38.735001	1046.271973	-25.777500	-27.580000	-29.001875
138.835999	49.227001	1044.686035	-25.611250	-27.768126	-29.111250
139.690002	38.979000	1045.052002	-25.523750	-27.698126	-29.006250
140.544006	41.297001	1044.686035	-25.952499	-27.746250	-29.233749
141.397995	37.576000	1043.222046	-25.637501	-27.728750	-29.229376
139.934006	34.282001	1044.807983	-25.663750	-27.645624	-29.133125
144.387009	40.931000	1045.417969	-25.795000	-27.566875	-29.176874
137.311005	34.709000	1036.451050	-25.856251	-27.575624	-29.089375
143.289001	42.639000	1046.577026	-25.961250	-27.658751	-29.019375
131.576996	36.539001	1047.735962	-25.506250	-27.632500	-29.089375
139.141006	42.272999	1053.042969	-25.781876	-27.838125	-29.111250
142.313004	47.031002	1055.300049	-25.676874	-27.759375	-29.102501
138.104004	34.342999	1051.761963	-25.698750	-27.711250	-29.063126
138.958008	42.761002	1048.712036	-25.707500	-27.750626	-29.106874
139.568008	41.846001	1048.223999	-25.571875	-27.645624	-29.159374
139.690002	40.869999	1044.807983	-25.519375	-27.754999	-29.168125
136.029999	38.063999	1043.832031	-25.672501	-27.663124	-29.098125
141.459000	37.332001	1044.320068	-25.952499	-27.636875	-29.084999
137.494003	43.126999	1044.563965	-26.184376	-27.671875	-29.155001
138.714005	42.334000	1049.260986	-25.663750	-27.671875	-29.049999
139.201996	38.552002	1050.297974	-25.563126	-27.715626	-29.111250
140.056000	40.015999	1044.869019	-25.725000	-27.890625	-29.168125
134.688004	35.746002	1041.514038	-25.668125	-27.772499	-29.111250
139.141006	37.332001	1042.368042	-25.514999	-27.698126	-29.010626
138.470001	43.493000	1050.724976	-25.445000	-27.650000	-28.971251
138.104004	46.786999	1047.369995	-25.580626	-27.702499	-28.997499
138.470001	35.319000	1045.052002	-25.873751	-27.693750	-29.102501
138.835999	35.136002	1050.603027	-25.628750	-27.711250	-29.080626
136.762009	38.368999	1047.125977	-25.755625	-27.676250	-29.106874
141.947006	45.323002	1051.945068	-25.786249	-27.632500	-29.001875
137.860001	46.604000	1048.589966	-25.939375	-27.724375	-29.032499
138.714005	39.833000	1045.906006	-25.790625	-27.886250	-29.176874
141.276001	39.650002	1047.248047	-25.961250	-27.825001	-29.102501
135.115005	44.469002	1047.614014	-25.720625	-27.733126	-29.014999
141.459000	42.456001	1047.004028	-25.856251	-27.667500	-29.058750
141.397995	39.894001	1046.515991	-25.891251	-27.750626	-29.045626
131.943008	39.406002	1048.102051	-25.803749	-27.829374	-29.141874
135.847000	38.307999	1049.810059	-25.672501	-27.890625	-29.084999
137.981995	45.201000	1044.747070	-25.795000	-27.698126	-29.071875
143.289001	40.382000	1046.821045	-25.987499	-27.829374	-29.106874
137.555008	43.249001	1049.078003	-25.996250	-27.851250	-29.172501
142.434998	37.149002	1045.417969	-25.812500	-27.575624	-29.190001
140.544006	38.552002	1046.515991	-25.821251	-27.584375	-29.211876
137.005997	35.990002	1048.223999	-25.733749	-27.711250	-29.014999
138.958008	38.552002	1047.979980	-25.764376	-27.754999	-29.084999
138.348007	41.053001	1046.027954	-25.755625	-27.684999	-29.176874
137.981995	41.968002	1047.735962	-25.611250	-27.750626	-29.216249
141.824997	38.917999	1048.346069	-25.606874	-27.873125	-29.111250
138.225998	37.332001	1049.566040	-25.882500	-27.890625	-29.128750
141.337006	36.844002	1050.053955	-25.615625	-27.706875	-29.159374
138.225998	41.663002	1048.956055	-25.388124	-27.803125	-29.133125
138.225998	35.563000	1048.712036	-25.711876	-27.860001	-29.150625
140.056000	42.761002	1047.248047	-25.991875	-27.803125	-29.190001
136.639999	40.382000	1047.735962	-25.799376	-27.737499	-29.106874
141.093002	39.040001	1046.394043	-25.803749	-27.816250	-29.098125
139.445999	43.371002	1047.125977	-25.611250	-27.816250	-28.993126
141.641998	38.674000	1045.906006	-25.593750	-27.794374	-29.054375
138.470001	39.650002	1045.661987	-25.287500	-27.737499	-29.014999
138.104004	41.114002	1048.895020	-25.615625	-27.706875	-29.176874
136.518005	37.088001	1047.614014	-25.449375	-27.606251	-29.093750
138.104004	43.980999	1046.638062	-25.589375	-27.606251	-29.102501
138.225998	38.612999	1046.027954	-25.589375	-27.663124	-29.120001
138.958008	41.541000	1048.589966	-25.725000	-27.741875	-29.115625
141.703003	43.066002	1046.271973	-25.803749	-27.737499	-29.054375
139.568008	45.688999	1045.540039	-25.843124	-27.684999	-29.028126
137.128006	45.139999	1049.383057	-25.786249	-27.715626	-28.997499
141.093002	38.491001	1046.271973	-25.799376	-27.667500	-29.084999
140.787994	40.382000	1047.248047	-25.633125	-27.715626	-29.054375
134.871002	41.114002	1043.343994	-25.633125	-27.776875	-29.067499
138.531006	43.554001	1047.552979	-25.248125	-27.776875	-29.067499
138.531006	43.554001	1047.552979	-24.871876	-27.676250	-29.120001
135.542007	40.138000	1044.320068	-25.396875	-27.650000	-29.106874
135.542007	35.990002	1049.626953	-25.838751	-27.645624	-29.058750
136.395996	42.151001	1048.712036	-25.965626	-27.711250	-29.071875
137.005997	39.284000	1048.223999	-25.900000	-27.706875	-29.014999
141.337006	42.761002	1048.102051	-25.838751	-27.855625	-29.115625
138.225998	39.284000	1047.735962	-25.549999	-27.663124	-28.962500
141.337006	37.698002	1047.979980	-25.471251	-27.667500	-28.980000
139.811996	41.541000	1049.566040	-25.410000	-27.698126	-28.984375
140.300003	39.650002	1042.307007	-25.541250	-27.776875	-29.093750
137.738007	42.151001	1048.895020	-25.773125	-27.728750	-29.010626
139.811996	37.820000	1043.953979	-25.584999	-27.676250	-29.063126
134.016998	39.771999	1042.978027	-25.952499	-27.759375	-29.014999
137.067001	40.625999	1048.162964	-25.904375	-27.864374	-29.028126
133.102005	39.894001	1045.174072	-25.991875	-27.728750	-29.054375
138.287003	38.186001	1047.492065	-25.466875	-27.650000	-29.067499
139.324005	38.917999	1045.540039	-25.685625	-27.549376	-28.984375
138.591995	39.894001	1045.906006	-25.545626	-27.540625	-28.988750
137.981995	41.723999	1049.749023	-25.300625	-27.606251	-29.076250
142.923004	41.602001	1043.282959	-25.549999	-27.759375	-29.014999
139.934006	39.040001	1045.417969	-25.353125	-27.689375	-28.949375
138.591995	47.275002	1048.162964	-25.567499	-27.733126	-29.063126
139.080002	36.783001	1046.271973	-25.672501	-27.632500	-29.028126
138.835999	42.028999	1045.174072	-25.878124	-27.671875	-29.019375
139.324005	38.674000	1048.895020	-26.416250	-27.838125	-28.962500
136.274002	40.382000	1046.638062	-25.978750	-27.733126	-29.098125
138.104004	40.382000	1041.391968	-25.248125	-27.632500	-29.063126
140.604996	35.136002	1045.967041	-25.869375	-27.623751	-29.080626
139.811996	40.687000	1051.213013	-25.917500	-27.785625	-29.106874
144.996994	38.430000	1049.199951	-25.773125	-27.803125	-29.093750
140.178009	36.478001	1044.807983	-25.348749	-27.549376	-29.014999
142.007996	37.209999	1048.041016	-25.576250	-27.593124	-29.058750
140.056000	31.964001	1050.420044	-25.760000	-27.514376	-28.931875
137.615997	43.310001	1046.638062	-26.158125	-27.663124	-29.049999
143.044998	41.723999	1051.213013	-25.655001	-27.741875	-28.988750
142.007996	39.040001	1042.185059	-26.070625	-27.680626	-29.163750
139.934006	38.796001	1044.563965	-25.707500	-27.610624	-29.067499
139.324005	39.528000	1043.953979	-25.760000	-27.763750	-29.172501
140.056000	35.868000	1048.285034	-25.471251	-27.580000	-29.093750
138.958008	40.443001	1046.515991	-25.738125	-27.667500	-29.001875
143.044998	38.430000	1043.099976	-26.118750	-27.724375	-29.133125
138.591995	37.332001	1046.333008	-26.057501	-27.737499	-29.225000
138.225998	38.430000	1045.296021	-25.768749	-27.667500	-29.098125
140.178009	44.957001	1047.004028	-25.563126	-27.754999	-29.133125
139.568008	44.164001	1044.563965	-25.554375	-27.759375	-29.041250
103.821999	77.653000	1177.117065	-28.629999	-29.605625	-30.314375
81.129997	83.082001	1070.550049	-20.991249	-28.809376	-26.503750
38.612999	101.443001	987.651001	-32.423126	-27.571251	-25.235001
41.418999	110.348999	977.281006	-25.270000	-28.236250	-27.934376
103.821999	112.423004	1135.880981	-11.921875	-33.206249	-30.266251
116.510002	172.751999	1150.703979	-15.426250	-32.003124	-27.728750
165.432007	195.992996	1285.880005	-15.426250	-32.003124	-25.055626
165.432007	240.218002	1409.099976	-4.296250	-41.886250	-25.055626
120.169998	240.218002	1409.099976	-3.447500	-58.082500	-22.343124
197.395996	215.391006	1505.175049	-0.717500	-60.414375	-27.431250
224.846008	277.916016	1408.612061	-8.211875	-87.324997	-18.738125
-35.990002	172.569000	1457.838989	-16.183125	-101.290001	-16.218124
74.603004	147.559006	1089.520996	-41.820625	-81.471252	-20.221251
227.774002	67.099998	957.395020	-53.108124	-102.423126	-16.576876
142.190994	35.868000	673.195984	-56.183750	-123.746872	-20.260626
245.098007	7.686000	477.691010	-46.309376	-101.504372	-28.017500
383.812012	52.094002	312.869019	-47.328751	-58.305626	-27.623751
391.925018	-8.784000	339.769989	-37.314377	-38.574375	-23.012501
257.602997	-91.987999	321.470001	-56.503124	-12.105625	-23.095625
143.167007	-40.199001	347.821991	-62.409374	22.246876	-29.701876
109.800003	-133.468002	747.616028	-26.232500	44.996876	-43.653751
129.503006	9.577000	755.606995	-49.625626	70.455002	-45.342499
88.876999	58.255001	955.382019	-2.135000	61.993752	-36.763126
-5.002000	-57.889000	1195.295044	16.607500	61.403126	-42.551250
144.264999	263.398010	1243.911987	9.353750	62.195000	-48.615002
101.198997	199.104004	1691.286011	23.642500	27.610624	-39.016251
46.055000	305.488007	1617.415039	-8.513750	20.186251	-42.568748
245.464005	361.912994	1763.448975	-23.117500	10.701250	-42.717499
216.671997	330.376007	1726.971069	-19.495001	-25.033751	-30.506874
74.176003	269.131989	1720.870972	-20.243126	-52.924374	-29.758751
237.350998	292.373016	1520.852051	-40.088123	-68.149376	-29.745625
141.886002	171.593002	1436.977051	-16.161249	-112.638748	-16.336250
-15.372000	23.607000	1409.526978	-16.821875	-114.174377	-20.671875
96.196999	68.930000	1135.636963	-29.513750	-119.520622	-24.745001
21.899000	28.121000	909.570984	-28.393749	-124.004997	-18.011875
-3.843000	-11.651000	788.424988	-27.531876	-99.868126	-16.756250
148.839996	96.258003	414.433990	-52.854374	-95.291878	-16.082500
147.009995	66.489998	234.301010	-46.724998	-87.268127	-20.151251
256.200012	79.300003	334.218994	-25.580626	-43.776249	-24.290001
364.291992	52.643002	242.048004	-42.796249	-14.332500	-26.215000
276.269012	50.630001	150.059998	-38.744999	14.188125	-24.911249
226.188004	-8.235000	470.798004	-2.226875	21.835625	-20.496876
-48.129002	-33.855000	768.661011	4.996250	51.681873	-34.544998
108.092003	137.615997	965.142029	-12.206250	94.320625	-51.537498
33.000999	37.027000	1101.660034	-2.143750	73.486877	-42.669376
31.476000	323.483002	1082.140015	18.633125	65.183128	-50.439377
222.466995	385.764008	1624.063965	12.035625	32.904373	-30.165625
-77.530998	296.277008	1654.686035	-26.455626	20.776875	-28.905624
99.369003	442.920990	1751.981079	-38.605000	25.077499	-35.349998
-13.420000	249.429001	1842.078003	-47.810001	-8.719375	-29.798124
18.177999	281.088013	1592.343994	-71.504997	-25.322500	-36.023750
214.720001	309.026001	1663.286987	-43.487499	-65.388748	-25.991875
29.036001	183.610001	1517.984985	-40.140625	-122.731873	-13.090000
16.653000	110.959000	1282.708008	-47.543125	-129.145630	-14.879375
75.029999	54.107002	1103.307007	-51.594376	-127.268753	-13.842500
89.304001	50.386002	890.416992	-40.569374	-138.652496	-18.099375
127.917000	24.948999	876.936035	-20.671875	-130.716248	-18.051250
135.115005	38.430000	618.966980	-38.180626	-96.149376	-19.385626
232.227005	67.099998	369.660004	-55.737499	-71.631874	-27.356874
373.563995	74.969002	374.113007	-33.871250	-52.981251	-25.462500
325.252014	32.269001	366.549011	-7.853125	-42.113750	-18.493126
197.762009	-56.181000	388.143005	-18.943750	-2.664375	-27.103125
251.747009	-11.956000	401.014008	-50.623123	49.349998	-34.195000
134.139008	-61.732002	635.864014	-28.310625	57.828751	-38.097500
124.867004	-35.868000	761.280029	-39.506248	93.493752	-46.051250
-3.660000	-71.918999	892.856995	-25.738125	106.303749	-48.155624
-90.584999	48.922001	877.302002	-37.121876	134.124374	-62.986874
100.100998	56.424999	1419.469971	15.627500	94.596252	-46.484375
-319.640015	116.265999	1383.846069	-4.086250	72.043121	-35.415627
-152.500000	157.563004	1529.697021	-5.893125	43.623123	-26.075001
-343.795990	274.195007	1772.781982	11.843125	-12.993750	-18.471251
-284.992004	276.330017	1998.604004	6.063750	-32.410000	-29.885626
-130.052002	277.306000	1731.729004	-33.661251	-59.220001	-29.798124
-267.118988	212.402008	1531.466064	-43.841873	-100.393127	-28.087500
-150.242996	125.843002	1450.336060	-39.340000	-116.125626	-31.451876
-91.012001	158.600006	1234.151978	-27.418125	-136.955002	-24.709999
-113.277000	55.449001	1173.274048	-23.734375	-143.342499	-23.209375
64.355003	10.858000	882.609009	-42.328125	-136.482498	-24.010000
143.837997	79.483002	514.046997	-51.152500	-141.067505	-20.387501
322.385010	15.860001	466.772003	-24.171875	-128.205002	-12.652500
305.244019	60.633999	401.989990	-14.612500	-103.035622	-5.705000
254.492004	25.010000	353.921997	-31.745001	-40.473125	-17.451876
218.867996	-48.617001	301.889008	-43.636250	-7.065625	-26.254375
39.833000	-78.568001	454.205994	-39.213123	27.654375	-38.810623
306.769012	-91.927002	573.278015	-47.389999	67.011871	-51.213749
232.593002	23.241001	674.598999	-15.518125	29.898750	-33.569374
-38.735001	-163.479996	1012.356018	7.420000	45.465000	-42.730625
215.635010	169.275009	1101.294067	-22.133125	77.192497	-51.760624
15.982000	0.488000	1307.169067	-15.299375	55.168751	-41.269375
75.152000	145.729004	1148.264038	-62.313126	78.907501	-43.365002
136.395996	192.393997	1341.328979	-29.010626	12.678750	-17.298750
-233.630005	13.481000	1341.511963	-16.992500	0.293125	-14.936250
122.854004	382.226013	1378.416992	-11.764375	-3.163125	-21.245001
62.586002	379.664001	1796.816040	56.498749	-58.078125	-6.571250
-132.919006	201.971008	1817.129028	56.498749	-58.078125	-6.571250
-132.919006	201.971008	1367.254028	21.844376	-55.562500	-7.660625
-83.997002	186.538010	1367.254028	-41.387501	-46.650623	-24.972500
54.290001	115.717003	1270.508057	-37.769375	-63.997501	-29.338751
46.055000	75.701004	1292.162964	-20.593124	-80.324997	-29.850624
64.111000	64.355003	1142.591064	-27.225624	-69.076874	-32.843124
124.928001	48.922001	1087.325073	-19.105625	-92.277496	-40.551876
133.041000	139.324005	1187.364990	13.868750	-113.277496	-44.821877
141.459000	113.764999	1207.617065	2.515625	-101.613747	-35.756874
67.527000	109.556000	1031.937012	-31.521875	-81.961250	-28.328125
119.011002	153.110001	851.255005	-50.579376	-68.783752	-28.783125
188.063004	130.235001	767.319031	-48.094376	-63.603748	-29.124374
183.365997	160.307999	491.233002	-62.925625	-56.516251	-31.150000
364.902008	153.171005	395.890015	-48.912498	-53.908749	-31.333750
347.578003	108.580002	449.265015	-39.856251	-49.043751	-24.898125
268.399994	84.607002	339.037994	-41.308750	-16.323126	-26.700624
348.859009	78.018997	493.002014	-32.480000	5.026875	-29.268749
211.425995	24.827000	675.757996	-36.080624	25.449375	-30.664375
238.632004	9.150001	716.750000	-48.260624	45.644375	-33.175625
106.932999	-95.221001	755.851013	-37.568127	22.058750	-28.363125
147.070999	101.625999	916.036987	-13.225625	30.152500	-24.561251
115.167999	-2.257000	1226.953979	11.440625	31.071251	-23.012501
105.834999	66.429001	877.119019	-56.840000	76.195000	-33.976250
243.268005	172.020004	1201.456055	-30.581249	32.628750	-2.896250
-360.510010	-67.039001	1267.519043	-17.832500	11.016250	6.335000
-162.138000	99.064003	1070.244995	-35.765625	43.435001	-15.413125
-116.632004	237.778000	1607.593994	37.852501	-17.066875	-12.814375
-101.015999	191.417999	1975.424072	37.401875	-25.865000	-26.770624
110.898003	390.888000	1762.717041	-17.171875	-7.822500	-42.743752
28.792000	318.481018	1658.041016	-49.389374	-41.326248	-37.489376
-87.168999	207.400009	1545.984009	-41.711250	-74.108124	-36.316875
-92.170998	119.133003	1463.268066	-33.096874	-90.413750	-37.861252
-108.335999	72.346001	1315.221069	-27.965000	-101.447502	-42.122501
-13.298000	68.442001	1093.608032	-27.041876	-118.212502	-45.976875
114.619003	134.749008	1084.275024	2.975000	-133.822495	-38.460625
107.299004	98.027000	1098.975952	2.607500	-122.570000	-37.480625
263.519989	168.665009	776.591003	-34.256248	-74.388123	-39.694374
425.352997	148.352005	634.888000	-44.813126	-69.492500	-28.848749
330.864014	134.809998	569.617981	-36.036877	-83.199371	-8.999375
165.615005	51.056999	646.600037	-25.821251	-75.188751	-6.370000
180.559998	80.031998	525.515015	-43.583752	-36.933750	-23.463125
276.390991	64.903999	445.178009	-61.757500	-10.937500	-40.048752
309.148010	111.141998	408.516998	-62.881874	-8.973125	-40.193127
330.925018	19.032000	473.177002	-47.573750	2.156875	-38.473751
416.569000	67.344002	617.259033	-41.720001	9.769375	-34.562500
271.632996	-26.474001	861.197998	-18.138750	1.850625	-24.570000
84.424004	-17.385000	919.635986	-52.298752	48.466251	-43.911877
275.170990	30.012001	992.713989	-61.941250	70.971252	-47.731251
62.890999	-197.822998	996.434998	-56.091873	56.424374	-40.919376
52.887001	-63.195999	809.835999	-62.790001	38.880627	-31.320625
-58.438000	-84.850998	1180.105957	-2.078125	6.260625	-17.968124
-32.939999	-88.694000	1401.230957	18.996250	18.786249	-22.820000
-21.837999	171.776001	1295.822998	0.459375	38.005627	-36.535625
42.577999	189.100006	1565.198975	4.278750	14.940625	-20.947500
-78.385002	173.117996	1813.041992	14.393750	-26.709375	-20.903749
21.167000	236.557999	1733.864014	-12.521250	-37.432499	-26.088125
-51.056999	161.528000	1555.438965	-36.351875	-56.958126	-24.298750
-2.318000	175.923996	1379.759033	-42.314999	-77.411247	-23.524376
-5.856000	-0.671000	1409.953979	-26.573750	-89.180000	-27.234375
71.125999	-11.407001	1209.141968	-35.048126	-80.150002	-33.687500
105.347000	2.074000	1169.431030	-21.529375	-91.931877	-32.003124
54.290001	65.636002	1214.631958	11.366250	-104.483749	-25.156250
-24.888000	3.050000	861.259033	-28.752501	-62.838123	-30.073750
215.513000	8.723001	684.114990	-53.073124	-65.117500	-39.025002
256.505005	78.140999	479.216003	-51.231251	-78.942497	-25.961250
217.709000	35.563000	513.681030	-23.008125	-66.504372	-20.514376
246.928009	9.333000	584.929016	-34.404999	-47.193127	-28.756874
298.717010	40.992001	340.319000	-60.943748	-24.088751	-35.581875
297.436005	-13.481000	453.412994	-42.275623	-16.126249	-33.031250
283.162018	-36.539001	558.028015	-43.649376	4.112500	-31.718750
326.350006	-0.549000	608.475037	-34.584373	9.135000	-21.686874
38.735001	-142.740005	834.296997	-15.929375	-0.813750	-17.412500
33.733002	-117.303001	1009.489014	-28.910000	37.362499	-34.908127
57.035000	-63.013000	971.059021	-44.318748	66.692497	-50.014999
255.102005	-49.897999	1003.937988	-41.772499	43.951248	-34.973751
-101.382004	-62.646999	1237.933960	-16.572500	13.177500	-16.878750
-28.182001	-0.122000	1319.734985	-21.691250	41.584373	-30.738750
55.570999	30.500000	1291.919067	-27.571251	51.143749	-28.406876
-122.427002	108.458000	1236.286987	-36.299374	21.848749	-14.048125
-132.675003	24.095001	1535.065063	4.427500	-7.096250	-9.826250
-160.369003	111.874001	1464.061035	-4.318125	-16.139376	-15.636250
-86.132004	144.570007	1585.268066	15.146250	-37.843750	-14.297500
-155.244995	117.547005	1559.221069	9.625000	-69.606247	-12.009375
-149.999008	106.811005	1370.303955	-16.038750	-77.678123	-15.448125
-41.846001	107.360001	1257.820068	-27.155624	-73.521873	-19.919374
-31.110001	63.989002	1258.917969	-19.070625	-76.387497	-20.321875
40.077000	40.443001	1169.796997	-19.070625	-63.704376	-24.045000
189.527008	70.760002	1103.368042	-29.421875	-63.704376	-24.045000
189.527008	70.760002	1125.389038	-34.632500	-81.830002	-21.888124
55.327000	-2.745000	1125.389038	-16.940001	-112.577499	-9.550625
-12.871000	-35.257999	972.583984	-25.484375	-101.758125	-14.875000
95.891998	-26.047001	1029.253052	-23.747499	-88.173752	-28.638750
81.862000	13.725000	915.731995	-42.800625	-74.129997	-38.066875
274.072998	44.896000	863.577026	-53.081875	-53.545624	-44.839375
366.731995	71.736000	758.901001	-45.036251	-59.071251	-37.266251
368.989014	57.584000	772.747986	-33.993752	-72.616249	-26.359375
369.660004	58.926003	820.815979	-34.650002	-65.900627	-22.251249
308.294006	54.167999	646.966003	-47.941250	-46.440624	-21.367500
337.817993	50.386002	409.005005	-59.758125	-24.653126	-25.414375
394.670013	65.879997	445.239014	-31.272499	-9.572500	-22.741249
366.061005	0.732000	631.471985	-16.323126	-5.604375	-20.028749
313.356995	7.259000	603.716980	-20.037500	11.353125	-17.154375
237.900009	-135.419998	765.733032	-12.197500	14.616875	-13.510000
98.942001	-27.328001	667.218018	-37.463123	30.292500	-16.305626
127.246002	-118.461998	942.328003	5.381250	22.120001	-15.089375
198.798996	-53.497002	865.712036	-9.489375	29.155001	-20.116249
169.701996	189.710007	1074.636963	14.065625	9.563750	-10.950625
-22.753000	-115.473000	1305.156006	14.791875	20.754999	-10.255000
7.808000	123.280998	1012.721985	-26.932501	42.284374	-28.800625
-35.868000	22.509001	1275.265991	2.401875	20.934376	-24.745001
-172.569000	106.932999	1134.599976	-5.201875	13.243125	-27.479376
139.324005	377.041016	1405.623047	34.973751	-9.585625	-31.346874
-67.832001	231.128998	1686.955078	34.671875	-23.970625	-29.850624
-92.292999	348.614990	1348.588013	-24.342501	6.886250	-47.048752
246.806000	453.230011	1627.602051	-13.698125	-21.000000	-37.918125
-60.207001	325.252014	1621.685059	-9.191875	-56.638748	-20.671875
-64.171997	289.261993	1407.331055	-44.130627	-50.758751	-28.678125
64.233002	299.631989	1203.286011	-59.946251	-56.074375	-30.843750
76.494003	286.578003	1151.375000	-46.287498	-73.101875	-22.408751
51.300999	186.111008	1270.264038	-23.266251	-82.805626	-13.230000
-27.694000	82.411003	1096.170044	-53.331249	-69.479378	-23.008125
135.481003	101.198997	941.718018	-55.580002	-54.289375	-29.137501
101.260002	43.859001	1138.869995	-9.336250	-78.837502	-28.446251
86.253998	21.289000	1125.083984	-15.229375	-60.891251	-39.471249
331.718018	154.513000	976.427002	-29.045626	-43.386875	-39.370625
260.653015	124.195999	1095.255005	-21.761250	-74.965622	-26.840626
198.860001	118.889000	982.588013	-30.550625	-61.473125	-25.751249
300.669006	119.681999	1103.734009	-33.599998	-51.961876	-29.080626
203.251999	77.165001	899.262024	-56.035000	-41.623749	-28.555626
256.261017	3.355000	800.625000	-67.860626	-27.378750	-30.498125
228.567001	80.398003	776.103027	-59.814999	-46.545624	-27.545000
230.824005	50.874001	686.677002	-56.284374	-72.423752	-24.106251
246.928009	52.704002	579.987976	-52.513126	-58.852501	-28.428749
349.102997	117.181000	587.369019	-40.516876	-41.028751	-30.681875
303.657990	45.567001	618.906006	-29.964375	-33.363750	-27.855625
286.212006	13.664001	561.749023	-33.508125	-19.656876	-30.546249
330.619995	4.331000	629.580994	-17.066875	-15.264375	-36.172501
418.338013	-16.775000	840.518982	-8.163750	-3.959375	-37.515625
292.067993	-6.344000	642.390991	-26.324375	5.687500	-28.192499
243.268005	31.049000	806.359009	-10.395000	6.094375	-36.806873
420.106995	88.084000	989.176025	-18.869375	21.131250	-32.103748
183.610001	-45.688999	909.022034	-11.003125	16.983749	-15.859375
17.263000	26.962000	989.114990	-19.394375	17.801874	-20.002501
245.341995	-17.812000	1160.219971	-7.612500	14.196875	-13.527500
-51.850002	2.501000	1032.119995	-11.510625	1.120000	-9.576875
26.596001	26.535000	1052.677002	-15.868125	12.289375	-20.348125
52.033001	37.942001	1233.480957	-9.069375	-4.165000	-16.397499
-240.828003	55.998001	1170.833984	-40.473125	17.281250	-38.329376
208.132004	31.049000	1274.900024	-64.758751	33.753124	-47.674374
145.912003	276.574005	977.220032	-74.165001	-19.683125	-22.330000
-2.135000	27.205999	1461.987061	9.506875	-42.516251	-22.321251
63.013000	4.941000	1462.170044	-29.811251	2.170000	-24.298750
-6.771000	101.808998	917.440002	-61.958752	13.321875	-28.008751
102.358002	65.453003	1203.957031	-16.305626	-22.465626	-28.910000
-6.100000	100.589005	1576.118042	20.094376	-49.061249	-31.950624
95.586998	181.597000	1554.218994	6.632500	-26.630625	-31.688126
56.791000	189.893005	1579.900024	3.994375	-46.825626	-24.430000
-115.412003	149.755005	1507.980957	-36.938126	-51.139374	-26.635000
74.237000	128.832001	1371.157959	-50.089375	-42.665001	-32.764374
-28.609001	88.389000	1254.953003	-41.028751	-63.354374	-33.538750
-76.615997	2.745000	1351.211060	-30.695000	-58.883125	-40.140625
25.559000	24.948999	1100.073975	-44.502499	-59.346874	-39.007500
-1.037000	-42.212002	1040.110962	-42.700001	-89.048752	-35.730625
61.366001	-45.139999	1049.383057	-33.184376	-90.711250	-39.466873
164.578003	-19.825001	838.200989	-49.345627	-81.834373	-39.987499
190.625000	15.799000	846.741028	-44.463123	-92.093750	-37.489376
289.811005	0.854000	867.481018	-38.609375	-68.114372	-36.951248
343.490997	25.193001	617.807983	-49.997501	-54.543125	-31.123751
392.412994	6.954000	439.993011	-46.103748	-57.999374	-21.227501
331.351990	-20.801001	552.843018	-12.468750	-76.308746	-9.375625
200.141006	5.612000	586.393005	-13.960625	-53.497501	-12.626250
240.523010	-5.795000	466.710999	-13.960625	-53.497501	-24.097500
240.523010	-5.795000	513.619995	-36.614376	-12.429375	-24.097500
354.837006	-26.413000	513.619995	-24.688126	-5.035625	-26.923750
311.282990	-19.825001	636.108032	-16.375626	0.831250	-26.753124
296.825989	-28.487000	700.707031	-11.165000	10.548125	-24.075624
124.440002	-107.848000	867.786011	0.529375	8.220625	-25.160625
149.266998	-81.618004	781.837036	-28.980000	34.173126	-32.309376
183.182999	-20.374001	741.088989	-6.409375	17.898125	-26.009375
-27.389000	-161.650009	880.840027	-2.034375	17.478125	-27.978125
116.448997	67.587997	982.039001	-2.791250	32.484375	-32.488750
84.667999	104.005005	1242.570068	28.258125	-0.284375	-25.882500
148.473999	126.819000	1455.093994	36.049999	1.010625	-28.966875
248.331009	299.571014	1732.278076	20.304375	0.783125	-31.819374
