AccX[mg]	AccY[mg]	AccZ[mg]	GyrX[dps]	GyrY[dps]	GyrZ[dps]	
44.347000	14.274000	1015.528015	-0.507500	0.520625	-0.288750
51.667000	8.540000	1014.674011	-0.367500	0.428750	-0.341250
54.839001	14.335000	1015.528015	-0.170625	0.450625	-0.284375
50.630001	15.860001	1014.186035	-0.196875	0.516250	-0.153125
50.386002	16.348000	1015.161987	-0.157500	0.551250	-0.201250
45.323002	10.187000	1015.406006	-0.332500	0.673750	-0.297500
49.227001	10.980000	1017.480042	-0.262500	0.468125	-0.284375
50.996002	16.165001	1013.210022	-0.253750	0.315000	-0.284375
51.605999	14.030000	1012.843994	-0.437500	0.472500	-0.157500
42.028999	19.459000	1015.588989	-0.288750	0.498750	-0.166250
47.153000	13.603000	1013.575989	-0.332500	0.472500	-0.258125
57.706001	12.627000	1015.528015	-0.249375	0.498750	-0.271250
48.129002	14.762000	1015.406006	-0.183750	0.625625	-0.236250
55.937000	16.348000	1017.785034	-0.441875	0.568750	-0.218750
45.079002	11.468000	1014.674011	-0.402500	0.555625	-0.245000
55.632000	13.542000	1015.040039	-0.354375	0.770000	-0.280000
54.900002	14.518001	1013.332031	-0.297500	0.691250	-0.293125
54.046001	13.786000	1008.085999	-0.319375	0.713125	-0.262500
55.388000	10.004000	1014.125000	-0.231875	0.555625	-0.153125
45.567001	12.749001	1016.809021	-0.315000	0.525000	-0.253750
51.972000	12.627000	1023.213989	-0.258125	0.538125	-0.406875
55.693001	13.786000	1018.578003	-0.218750	0.538125	-0.271250
45.567001	17.507000	1012.416992	-0.223125	0.608125	-0.183750
45.262001	8.235000	1019.249023	-0.288750	0.595000	-0.223125
49.593002	13.359000	1015.772034	-0.196875	0.625625	-0.301875
43.980999	21.045000	995.031982	-0.083125	0.463750	-0.385000
55.510002	13.603000	1003.389038	-0.161875	0.555625	-0.315000
55.754002	16.409000	1023.518982	-0.227500	0.406875	-0.236250
50.751999	13.664001	1012.051025	-0.345625	0.520625	-0.144375
45.750000	11.224000	1009.794006	-0.402500	0.695625	-0.293125
55.205002	18.177999	1017.663025	-0.236250	0.472500	-0.280000
46.421001	12.566000	1015.040039	-0.297500	0.358750	-0.262500
48.068001	10.614000	1014.064026	-0.253750	0.415625	-0.161875
49.410000	15.311000	1013.942017	-0.227500	0.437500	-0.214375
54.595001	14.640000	1014.552002	-0.196875	0.507500	-0.301875
53.070000	12.932000	1016.015991	-0.358750	0.691250	-0.275625
53.436001	12.810000	1014.918030	-0.319375	0.586250	-0.227500
46.055000	10.736000	1014.796021	-0.341250	0.761250	-0.166250
42.944000	6.588000	1013.697998	-0.179375	0.682500	-0.328125
51.545002	16.714001	1014.552002	-0.113750	0.796250	-0.450625
57.340000	11.163000	1015.528015	-0.336875	0.590625	-0.144375
43.675999	14.335000	1014.552002	-0.341250	0.686875	-0.048125
38.674000	15.006001	1017.053040	-0.433125	0.638750	-0.301875
48.007000	19.093000	1014.796021	-0.612500	0.669375	-0.568750
57.157001	15.738000	1014.429993	-0.542500	0.730625	-0.389375
54.046001	13.908000	1013.332031	-0.437500	0.590625	-0.258125
52.704002	10.614000	1011.867981	-0.389375	0.612500	-0.201250
46.786999	18.849001	1014.613037	-0.196875	0.468125	-0.323750
45.383999	14.152000	1016.015991	-0.065625	0.455000	-0.297500
56.181000	19.520000	1010.770020	-0.341250	0.665000	-0.249375
49.348999	15.494000	1015.710999	-0.345625	0.713125	-0.280000
49.897999	7.747000	1017.601990	-0.258125	0.686875	-0.166250
44.529999	10.370000	1015.772034	-0.310625	0.551250	-0.240625
54.229000	19.703001	1014.796021	-0.367500	0.608125	-0.280000
47.763000	14.762000	1011.989990	-0.280000	0.770000	-0.284375
49.043999	16.348000	1010.648010	-0.236250	0.735000	-0.306250
55.449001	12.200000	1012.112000	-0.183750	0.315000	-0.350000
50.630001	11.468000	1014.064026	-0.231875	0.428750	-0.280000
48.556000	21.472000	1010.160034	-0.170625	0.603750	-0.271250
52.459999	18.117001	1015.223022	-0.249375	0.700000	-0.345625
51.850002	13.786000	1015.406006	-0.205625	0.717500	-0.157500
49.897999	16.653000	1011.014038	-0.350000	0.586250	-0.271250
50.751999	15.982000	1012.478027	-0.402500	0.730625	-0.275625
48.434002	12.078000	1015.467041	-0.144375	0.476875	-0.223125
48.678001	14.823000	1013.697998	-0.332500	0.568750	-0.258125
49.653999	17.507000	1016.199036	-0.319375	0.665000	-0.196875
46.604000	18.910000	1012.356018	-0.389375	0.533750	-0.240625
50.691002	20.862000	1013.088013	-0.315000	0.437500	-0.293125
50.447002	12.932000	1013.270996	-0.345625	0.529375	-0.363125
47.702000	17.019001	1015.650024	-0.245000	0.704375	-0.293125
51.789001	12.322001	1013.454041	-0.293125	0.840000	-0.323750
49.166000	10.614000	1015.161987	-0.271250	0.665000	-0.166250
44.896000	21.167000	1013.575989	-0.056875	0.573125	-0.341250
51.910999	14.823000	1016.809021	-0.170625	0.800625	-0.297500
53.802002	16.226000	1018.700012	-0.144375	0.708750	-0.262500
46.542999	14.518001	1012.661011	-0.021875	0.809375	-0.297500
49.288002	14.030000	1015.833008	-0.297500	0.621250	-0.179375
45.5060
77.530998	-137.311005	1307.229980	0.883750	-2.235625	-3.088750
18.177999	-100.223000	991.554993	0.883750	-2.235625	0.000000
15.372000	-140.727005	999.363037	-17.793125	1.526875	-30.161249
30.988001	-132.675003	973.864990	-1.771875	6.146875	-31.333750
19.825001	-131.028000	1002.473999	-1.868125	11.742500	-21.013124
5.002000	-126.575005	1010.587036	-5.967500	31.399376	-9.069375
-43.920002	-131.393997	1003.510986	-8.470000	48.995625	-0.446250
-44.347000	-137.981995	1034.743042	4.042500	-27.759375	10.941875
3.782000	-128.770996	1001.497986	5.757500	-40.928123	17.683750
19.520000	-126.391998	994.726990	6.330625	-32.974377	20.413750
-8.113000	-129.930008	854.609985	0.183750	-0.459375	19.158125
25.010000	-137.555008	1046.088989	-1.268750	8.653750	10.211250
4.148000	-133.285004	1033.523071	-0.262500	2.856875	1.106875
32.452000	-112.179001	897.737000	-0.752500	1.973125	-0.240625
6.649000	-127.489998	993.994995	-2.205000	10.491250	1.955625
-4.941000	-133.285004	1019.614990	-0.980000	14.647500	2.563750
-10.675000	-129.259003	1016.382019	-0.205625	7.831250	2.467500
5.612000	-121.939003	1003.937988	2.165625	-12.888750	1.286250
6.954000	-131.576996	1005.890015	1.671250	-12.919375	2.318750
9.150001	-125.843002	1006.622009	1.798125	-10.272500	2.677500
-26.596001	-136.212997	940.132019	-2.366875	-1.872500	4.125625
36.600002	-131.455002	1002.596008	-7.686875	3.819375	8.155000
22.448000	-129.197998	1019.919983	0.126875	6.050625	3.596250
0.427000	-148.352005	985.028015	2.353750	5.355000	-0.253750
5.429000	-123.647003	974.475037	-0.638750	2.970625	1.771875
15.067000	-138.348007	1007.476013	2.016875	3.491250	0.341250
-58.926003	-117.973999	1080.980957	-0.236250	1.911875	-0.625625
-68.137001	-221.369003	1029.557983	-16.463125	-5.875625	21.083124
66.978004	-160.307999	1130.879028	11.156250	21.629999	31.570000
4.392000	-132.858002	993.629028	35.275623	44.725624	26.635000
-39.466999	9.699000	982.648987	18.309376	20.903749	31.801874
-12.200000	-88.633003	982.954041	-2.817500	-40.005001	25.729376
20.496000	-84.973000	694.484985	-59.591873	-64.115623	8.076250
-36.173000	-132.613998	953.552002	-9.730000	-17.880625	-2.082500
3.599000	-122.305000	952.942017	-4.536875	-5.425000	-4.580625
10.065001	-125.293999	968.436035	-1.295000	2.235625	-2.454375
11.224000	-125.843002	1017.601990	-0.183750	-1.474375	-0.258125
6.344000	-128.710007	1011.319031	0.984375	-3.631250	-0.148750
-1.037000	-140.238998	1030.229004	-0.953750	1.163750	-0.052500
13.542000	-129.869003	1013.697998	-0.192500	1.146250	-0.463750
33.611000	-143.044998	1007.903015	0.560000	1.535625	-0.393750
27.511000	-118.645004	999.241028	-6.860000	4.353125	-2.156875
20.313000	-163.236008	965.752014	-21.520624	10.206875	-5.486250
32.695999	-162.138000	1047.552979	-26.053125	2.498125	-10.653125
41.174999	-170.738998	1025.104980	10.911250	-5.525625	-12.538750
-24.888000	-316.407013	1127.951050	-33.411877	25.143126	2.533125
-89.853004	-110.531998	996.130005	1.557500	26.722500	-18.956875
-27.938000	-266.204010	944.645996	53.480000	-46.917500	-18.410000
-1.708000	-103.761002	926.590027	43.837502	-81.913124	-10.150000
8.662000	-91.987999	969.900024	9.467500	-19.691875	5.700625
26.352001	-132.919006	1021.567017	5.985000	15.391250	12.998125
13.298000	-153.475998	1035.901978	4.768750	16.309999	13.286875
-44.225002	-62.952000	1022.481995	17.990000	15.347500	8.531250
-26.718000	-203.007996	1069.573975	24.228750	14.056875	21.043751
-15.128000	13.054000	951.173035	8.649375	3.307500	11.904375
-429.501007	442.615997	963.799988	9.275000	0.148750	10.395000
-9.638000	53.618999	932.202026	-21.940624	-16.323126	30.791250
30.683001	-64.598999	964.288025	-41.575626	-27.908125	33.149376
34.831001	-169.884995	1167.906006	13.658750	3.224375	27.851250
-27.205999	-71.187004	841.678040	24.307501	3.736250	20.951876
-3.599000	-61.061001	1022.604004	-15.780625	-8.920625	12.971875
-13.115000	-80.398003	965.203003	-14.017500	4.580625	3.290000
15.128000	-110.288002	1130.208008	14.196875	3.937500	-4.886875
3.111000	-78.690002	986.004028	-3.863125	-7.472500	-10.998750
8.357000	-88.999001	901.518982	-10.071250	7.065625	-12.621875
-8.540000	-86.253998	998.265015	1.325625	8.325625	-13.396250
4.880000	-122.122002	804.041016	-44.489376	7.704375	2.331875
69.174004	-273.097015	1017.846008	39.388126	14.126875	50.045624
-108.397003	-86.010002	1049.810059	41.877499	-54.945625	39.038124
-47.580002	186.111008	1085.494995	56.240623	27.370001	6.326250
-21.960001	32.208000	1137.711060	15.316875	87.683746	1.216250
-193.003998	120.779999	983.075989	-11.335625	13.711250	-31.176250
-118.950005	83.997002	935.374023	-44.432499	-75.967499	-76.510002
101.077003	-220.149002	1100.073975	-62.203751	26.683125	-70.323753
61.427002	-322.628998	861.625000	-61.608749	48.544998	-63.984375
13.420000	-57.035000	1096.109009	-40.215000	10.587500	6.251875
-17.568001	48.799999	1901.735962	-72.401878	1.973125	12.753125
-120.841003	-206.119003	1072.928955	-15.351875	-27.068125	42.061249
-78.445999	-269.376007	1020.225037	27.129375	31.727501	36.071877
-344.283997	-260.774994	934.580994	-5.368125	-76.536247	-20.855625
64.355003	-132.675003	1168.760010	-34.225624	-131.705002	-39.633125
252.173996	-207.522003	1998.604004	-96.985001	-83.632500	-32.011875
-85.705002	-170.373001	778.116028	-57.049999	-31.482500	-41.838123
212.707001	-411.567017	847.960999	-56.402500	5.057500	-1.487500
147.742004	-395.768005	901.275024	-50.268749	42.013126	-15.636250
20.252001	-597.129028	636.108032	-79.506874	8.325625	-51.231251
44.103001	-451.583008	882.182007	-77.039375	-35.695625	-22.417500
112.056999	-569.069031	928.541992	-34.895000	-46.191250	-4.965625
-5.429000	-395.707001	493.123993	-27.798750	2.038750	24.386250
98.454002	-686.677002	812.215027	-51.240002	39.676876	78.798126
61.915001	-623.054016	826.916016	-50.522499	47.258751	21.953751
148.779007	-639.401978	935.007996	-22.172501	10.456250	42.271252
44.591000	-710.588989	904.996033	16.213751	18.886875	63.367500
6.039000	-421.022003	618.723022	-13.146875	38.600624	42.376251
-59.658001	-743.651001	1003.572021	15.190000	30.375626	45.985626
-204.227997	-817.156006	722.911011	7.892500	3.596250	43.264374
-130.052002	-454.145020	1025.837036	100.283752	7.376250	9.690625
-81.191002	-437.614014	779.335999	101.167503	-6.343750	-6.881875
-23.424000	-441.761993	984.601013	118.072502	-51.550625	-25.143126
35.014000	-300.058990	894.442993	107.371246	-23.156876	-19.608749
-32.757000	-303.902008	1115.506958	54.709373	-33.936874	-10.132500
65.086998	-364.414001	1028.032959	19.862499	-16.690624	-7.284375
43.126999	-330.315002	1021.932983	27.588751	5.490625	8.286250
-65.879997	-247.111008	1055.300049	-6.593125	11.799375	-1.675625
-16.714001	-211.609009	922.259033	-27.667500	79.454376	10.023125
-124.074005	-243.024002	1009.976990	70.135628	-10.535000	33.932499
-170.800003	-152.378006	992.958008	70.271248	-37.856876	8.085000
-14.762000	-163.419006	1074.880981	46.611252	-32.908749	-23.970625
3.111000	-175.253006	1088.484009	6.286875	-14.148750	-20.094376
4.148000	-161.162003	1089.338013	-4.348750	6.431250	-14.835625
-26.840000	-145.180008	1004.731018	8.531250	0.809375	-16.375626
-34.952999	-44.225002	1003.694031	18.427500	-21.490000	-29.089375
131.272003	-90.036003	884.195007	27.790001	-39.523750	-30.161249
55.998001	-78.690002	1026.812988	19.923750	-47.219376	-19.687500
104.614998	-18.422001	1016.565002	16.270624	-6.199375	20.575624
-22.570000	-136.945007	1003.877014	-7.144375	-5.481875	12.241250
175.802002	-116.205002	1055.360962	-9.572500	-4.038125	11.602500
34.038002	-190.014999	970.449036	-9.852500	33.643749	-7.927500
-67.161003	-184.768997	1014.307983	23.778126	71.014999	-26.315624
21.837999	-66.551003	1087.264038	48.921249	86.944374	-28.363125
-139.507004	-23.302000	946.842041	58.721249	58.454376	-9.813125
-81.496002	46.542999	936.533020	26.915001	-7.118125	-3.198125
-58.621002	-18.300001	898.468994	-24.771250	-70.533752	-15.780625
51.605999	22.997000	1049.810059	-25.563126	-80.119377	-23.139376
-50.202999	19.825001	1085.860962	19.311251	31.950624	-6.146875
17.507000	31.964001	1052.738037	34.334999	20.540625	4.602500
-46.237999	-35.929001	1105.990967	32.396873	-0.411250	13.050625
-57.035000	32.635002	981.978027	13.873125	-25.956875	11.611250
-66.306999	95.160004	1025.287964	-19.464375	-25.738125	4.773125
31.049000	125.660004	985.942993	-18.755625	-7.105000	-2.008125
-22.631001	140.300003	1123.010010	-5.919375	10.565625	3.815000
-71.248001	158.173004	1231.833984	-7.485625	32.991875	13.991250
-54.900002	111.996002	1106.417969	-5.643750	39.064377	16.388750
71.980003	109.556000	1073.416992	-2.073750	7.472500	13.146875
64.965004	38.003002	756.216980	-7.135625	33.040001	20.571251
-25.498001	21.960001	882.059998	-1.785000	64.264374	10.955000
-112.667000	-15.921000	813.801025	-23.485001	56.822498	-12.989375
-132.003998	19.459000	593.895996	-41.378750	0.634375	-32.068748
-152.012009	-1.403000	854.244019	-27.444374	-58.113125	-31.342501
-91.744003	-15.006001	856.684021	-38.106251	-55.680626	-24.775625
4.941000	-123.585999	937.387024	-11.611250	-63.826874	-31.045000
75.822998	-119.133003	1125.450073	10.981250	-35.288750	-19.324375
54.716999	-38.491001	1023.275024	11.471250	17.639999	8.631875
-60.024002	-13.603000	1122.094971	41.361252	65.506874	22.618750
-64.171997	-1.464000	970.815002	41.488125	26.442499	7.284375
-128.953995	74.298004	1080.797974	10.950625	-11.659375	-24.430000
-158.844009	65.453003	994.848999	-5.166875	-1.229375	-23.633751
-89.853004	-35.075001	1014.734985	-20.623751	-9.148125	-7.953750
-100.223000	66.673004	1089.703979	-25.108126	-24.902500	-17.998751
-90.097000	-18.239000	991.859985	-15.973125	8.990625	-17.854376
-74.786003	54.167999	1130.940063	-18.099375	37.436874	6.737500
-284.808990	-34.465000	953.979004	-11.790625	-11.025000	13.247500
14.518001	-26.779001	1056.581055	-5.315625	-65.121872	-7.551250
62.708000	-30.622000	978.440002	-0.310625	-55.995625	-9.765000
148.779007	-15.494000	1103.245972	9.581250	-3.946250	-7.061250
133.102005	-42.395000	1063.412964	9.926875	34.698124	-12.092500
45.688999	-0.488000	1037.182983	22.548750	49.161877	-12.236875
-26.047001	4.697000	996.069031	11.554375	26.700624	0.433125
-51.910999	-60.756001	944.280029	-1.071875	-8.334375	-2.458750
8.784000	-45.018002	845.398987	-2.738750	-1.290625	-2.471875
-69.174004	-78.323997	936.228027	-15.907500	16.419374	3.456250
-70.028000	-113.459999	954.955017	-28.625626	21.196875	-1.649375
-56.486000	-90.829002	1056.885986	-24.027500	-29.386875	-3.185000
4.270000	-111.691002	1172.847046	-18.440624	-20.286875	3.644375
-3.721000	-91.682999	1082.384033	-6.199375	-4.606875	9.874375
-3.660000	-66.184998	1131.123047	-5.827500	-1.465625	9.795625
44.896000	-24.644001	1035.780029	-2.953125	-3.220000	3.911250
62.220001	-65.086998	1018.700012	9.016875	14.468125	2.590000
42.944000	-81.251999	1042.185059	10.014375	23.082500	1.106875
22.570000	-83.570000	996.496033	4.506250	15.150625	2.655625
25.559000	-117.730003	1022.726013	10.311875	11.270000	-7.485625
13.359000	-72.956001	961.238037	7.875000	14.140000	-7.673750
57.767002	-120.658005	1042.672974	-5.700625	9.432500	-15.286250
-12.749001	-114.497002	973.132996	-27.273750	19.311251	-3.548125
-45.018002	-102.358002	935.923035	-13.973750	45.924374	-1.443750
-117.547005	-112.789001	965.507996	0.323750	67.733749	-0.704375
-307.317993	-66.612000	907.009033	-5.460000	36.430626	6.238750
-337.208008	-103.273003	877.790039	-2.913750	17.040625	11.720625
-222.345001	-123.585999	1073.172974	13.527500	32.283127	14.752500
-298.290009	-48.556000	1072.380005	6.383125	20.374374	9.493750
-343.917999	-58.621002	1072.624023	7.748125	1.439375	1.378125
-261.385010	-54.900002	993.324036	-6.081250	9.568125	6.308750
-228.750000	-71.003998	998.630981	-2.043125	15.680000	8.570625
-211.121002	-84.667999	1035.230957	-8.986250	-0.577500	5.993750
-208.376007	-141.581009	992.408997	-7.980000	-13.111875	5.271875
-182.512009	-102.175003	1012.905029	5.368125	-36.435001	-5.258750
-171.287994	-113.642998	1053.531006	3.758125	-37.200626	-11.519375
-98.576004	-69.052002	1013.637024	0.896875	-32.685623	-18.711876
-79.361000	-65.941002	1069.025024	8.001875	-26.600000	-7.770000
-117.668999	-84.302002	991.738037	3.255000	7.665000	-1.085000
-137.860001	-90.097000	923.601013	6.908125	40.770626	-3.360000
-183.854004	-66.612000	908.411987	3.080000	-1.973125	-0.875000
-255.041000	-14.457000	833.382019	0.616875	-21.651875	-13.899375
-144.020996	-47.091999	866.322021	-0.118125	-18.094999	-13.492500
-266.813995	1.220000	809.408997	-4.593750	-7.214375	-5.744375
-342.088013	-28.670000	820.937988	-12.512500	-1.859375	-11.204375
-299.144012	-48.190002	940.254028	-28.341249	-0.446250	-17.473749
-242.841003	-81.496002	1003.816040	-37.253124	-19.613125	-19.118750
-135.785995	-115.167999	1033.583984	-50.658127	-25.322500	-8.688750
-127.673004	-155.123001	1019.919983	-56.695625	-29.369375	1.553125
-97.478004	-53.070000	897.981018	-38.001251	-25.357500	-0.336875
-16.042999	-111.325005	931.470032	-40.254375	-30.520000	-17.158751
158.904999	-139.811996	1032.791016	-35.783127	-20.269375	-36.723751
153.658997	-199.835999	1252.086060	-34.790001	-7.000000	-49.446251
153.110001	-174.643005	1160.098022	-11.296250	-13.081250	-65.314377
169.580002	-210.206009	1171.566040	-9.086875	-4.300625	-68.687500
129.014999	-278.953003	1100.256958	-12.897500	2.625000	-65.791252
119.011002	-412.908997	1022.848022	-3.290000	15.076250	-57.977501
116.265999	-472.750000	1123.558960	-3.377500	27.693750	-50.898750
41.602001	-481.717010	978.744995	9.966250	15.911875	-52.110626
83.814003	-419.436005	1037.915039	25.046875	34.304375	-27.243126
55.205002	-418.459991	931.897034	19.731251	20.405001	-21.516251
36.234001	-389.545990	935.923035	16.555000	22.588125	-15.649375
7.442000	-392.473999	1026.385986	19.923750	25.567499	-16.804375
-35.319000	-337.390991	956.663025	23.493750	30.681875	-12.101250
-24.888000	-295.850006	1013.454041	26.713751	42.616875	-10.867500
-63.135002	-304.938995	1036.572998	23.773750	26.490625	-0.870625
-57.401001	-227.164001	1003.572021	24.307501	11.361875	6.654375
-102.723999	-248.087006	1032.852051	21.529375	22.115625	13.790000
-99.002998	-223.199005	1081.164062	6.256250	33.608749	18.821251
-171.837006	-233.751999	1074.820068	4.939375	47.499374	17.473749
-197.945007	-229.787003	1124.412964	1.474375	50.382500	20.361250
-235.033005	-242.352997	961.299011	7.000000	36.618752	25.138750
-237.046005	-246.928009	992.348022	3.810625	33.158127	28.336876
-226.615005	-233.141998	940.376038	5.980625	31.871876	29.194374
-297.863007	-236.557999	938.302002	8.334375	35.643124	35.096249
-271.084015	-222.040009	936.593994	10.154375	40.236874	34.575626
-294.934998	-201.361008	860.343994	2.629375	36.273125	36.189999
-330.253998	-155.428009	877.790039	-3.574375	37.485001	36.102501
-362.401001	-127.429001	802.882019	-10.329375	19.818750	38.167500
-377.346008	-116.022003	851.682007	-3.880625	21.695625	34.313126
-365.390015	-104.676003	799.161011	-12.893125	11.1
-135.359009	59.658001	802.333008	-16.218124	-54.473125	37.935623
-244.365997	96.196999	923.052002	-16.896250	-51.450001	33.551876
-175.740997	-57.096001	954.650024	-20.816250	-64.500626	31.535000
-168.787003	-32.635002	1058.593994	-26.770624	-69.811874	25.606874
-151.279999	33.367001	1047.796997	-18.291876	-68.656876	7.525000
-40.687000	-25.193001	1108.004028	-19.893126	-85.041252	-1.225000
-33.855000	12.627000	1245.375977	-12.866875	-78.500626	-5.805625
109.250999	47.031002	1135.820068	-3.941875	-38.329376	-10.784375
87.778999	-115.595001	1077.321045	-20.658751	-5.131875	5.639375
60.084999	-51.728001	968.924011	-7.625625	-19.775000	-16.489374
27.694000	-88.511002	1008.268982	-25.121250	-10.246250	-18.178125
183.731995	-210.206009	1009.062012	-6.846875	-33.324375	-42.424374
19.947001	-151.524002	1026.568970	-21.214375	-20.453125	-49.314999
120.109001	-141.459000	1181.326050	-28.105000	-17.526251	-43.133125
313.113007	-211.731003	1095.133057	1.666875	-21.835625	-42.402500
117.791000	-179.218002	1058.289062	-18.046875	-0.577500	-39.213123
182.695007	-192.210999	1150.582031	-20.772499	7.546875	-39.068748
163.113998	-256.809998	1008.940002	-2.314375	-0.958125	-46.711876
141.154007	-253.760010	1176.812012	-0.192500	4.156250	-38.723125
178.669006	-263.093018	1124.779053	17.797501	3.723125	-45.241875
128.832001	-155.061996	1082.811035	-7.892500	16.642500	-48.326248
148.412994	-204.350006	1135.026978	-12.223750	25.318125	-44.555000
62.403000	-234.484009	1060.607056	-9.695000	39.116875	-36.421875
43.675999	-231.983002	1056.398071	-22.439375	40.954376	-30.861250
54.900002	-288.347015	991.005981	-15.662500	31.215626	-28.735001
-34.831001	-314.821014	1039.073975	-11.270000	42.966873	-33.219376
36.295002	-287.675995	1085.190063	-19.285000	39.943748	-35.240623
7.442000	-341.050995	1094.279053	-6.142500	40.188751	-34.615002
-5.429000	-303.718994	1045.540039	-7.196875	39.186874	-26.171249
-85.765999	-350.872009	942.023010	-0.214375	35.721874	-25.519375
-43.310001	-350.750000	1116.727051	18.081875	44.839375	-23.642500
-112.179001	-392.901001	1009.549988	10.031875	33.709373	-14.612500
-89.974998	-406.748016	1099.829956	24.010000	30.397499	-17.578751
-138.591995	-381.554993	1079.943970	32.108124	50.675625	-12.057500
-155.061996	-415.044006	1045.174072	25.471251	33.057499	-4.873750
-152.927002	-325.739990	1002.778992	31.040625	20.811874	-7.787500
-131.699005	-275.292999	993.751038	26.389999	27.120625	4.379375
-219.722000	-270.351990	899.994019	5.118750	43.811249	25.694374
-183.305008	-240.584000	891.148987	4.313750	43.098125	31.495625
-286.639008	-244.610001	845.703979	5.560625	36.662498	33.783749
-276.878998	-224.175003	817.583008	7.253750	26.271875	32.239376
-294.752014	-217.343002	897.676025	6.741875	25.663750	40.250000
-285.785004	-177.326996	861.197998	2.791250	21.783125	43.006248
-308.476990	-170.738998	836.005005	7.634375	15.076250	42.905624
-363.864990	-106.079002	840.275024	13.750625	24.219999	40.451248
-305.976013	-121.024002	855.220032	3.062500	17.150000	38.819374
-358.802002	-50.691002	868.578979	-10.136875	17.797501	42.008751
-317.078003	-56.791000	863.882019	-16.253124	15.448125	49.765625
-350.261993	-74.664001	839.177002	-14.748125	14.450625	53.676876
-249.307007	-16.836000	811.971008	-14.218750	13.960625	53.112499
-394.364990	79.483002	754.630981	-11.462500	-7.896875	59.434376
-273.279999	-5.551000	723.460022	-6.899375	-2.384375	64.990623
-385.276001	88.084000	750.788025	-7.039375	-1.181250	64.500626
-290.604004	-11.529000	786.716980	-7.800625	-13.348125	59.154373
-324.641998	140.910004	817.033997	1.089375	-23.603125	47.604374
-266.936005	113.154999	833.138000	-5.057500	-27.663124	35.857498
-271.144989	124.074005	755.729004	-11.165000	-30.441250	51.607498
-75.212997	192.455002	953.918030	-7.183750	-25.720625	54.985001
-265.838013	261.506989	895.419006	-26.705000	-39.991875	25.493126
-7.320000	213.744003	962.518982	-34.890625	-56.774376	15.465625
-265.289001	268.826996	1116.056030	-23.051874	-39.414375	13.759375
-120.963005	132.065002	1016.199036	-21.765625	-68.551872	-11.046875
-6.161000	190.686005	1026.874023	-10.701250	-56.962502	-18.554375
-126.209000	196.359009	1061.217041	-5.818750	-49.433125	-21.708750
1.159000	88.084000	1069.025024	-28.323750	-41.230000	-44.931252
119.438004	-35.624001	1198.040039	-9.143750	-47.306873	-39.541248
79.848999	63.379002	1024.433960	-22.631874	-32.401249	-64.137497
-87.535004	204.106003	995.153992	-56.052502	-54.862499	-66.753754
198.311005	-62.341999	1060.850952	-44.865623	-50.290627	-47.521252
169.397003	-32.085999	934.764038	-19.560625	-40.123123	-66.836876
226.919998	-78.568001	1082.811035	-51.638126	-38.898125	-50.924999
319.152008	-183.182999	1082.018066	-39.270000	-21.818125	-39.431873
244.671005	-127.429001	945.439026	1.911875	-16.813126	-49.949375
365.634003	-144.326004	1146.312012	-5.775000	-1.929375	-31.329374
259.799011	-192.393997	1135.880981	-1.623125	3.548125	-24.071251
369.782013	-179.462006	1344.013062	10.211250	11.256875	-48.413750
243.512009	-121.512001	1200.968018	0.240625	13.107500	-46.326874
279.075012	-163.419006	1177.360962	5.070625	0.634375	-54.201874
258.640015	-121.267998	1223.171997	-0.039375	20.387501	-53.029373
212.768005	-173.362000	1137.344971	-3.272500	36.859375	-47.954376
83.814003	-180.742996	1263.066040	-20.571251	71.452499	-36.955624
75.701004	-253.210999	1216.218018	-32.786251	58.275002	-32.055626
34.098999	-272.304016	1187.060059	-27.759375	26.363750	-33.381248
110.898003	-380.274017	1245.498047	-11.641875	57.710625	-37.436874
-23.302000	-368.074005	1092.021973	5.254375	89.993752	0.555625
-121.756004	-409.371002	945.561035	6.146875	78.846252	4.615625
-182.755997	-345.992004	930.738037	24.246250	63.363125	-1.220625
-117.791000	-240.828003	992.958008	31.863125	67.768753	9.213750
-252.357010	-350.994019	844.057007	19.893126	81.029373	20.260626
-229.542999	-180.804001	923.052002	11.401250	77.651878	14.520625
-246.318008	-154.451996	817.156006	2.432500	78.728127	26.779375
-365.084991	-86.803001	718.031006	-11.103750	77.708748	40.512501
-422.303009	-116.875999	846.375000	-14.021875	57.448124	59.622501
-415.348999	-155.123001	606.278992	-0.826875	29.434999	73.495628
-782.874023	-223.565002	782.447021	-0.595000	-53.786251	57.859375
-433.039001	0.305000	817.949036	-2.664375	-47.442501	57.662498
-390.033997	-28.426001	744.749023	-4.011875	30.891874	55.116249
-486.291992	-8.113000	828.319031	0.087500	4.755625	46.077499
-418.643005	67.344002	822.218994	1.938125	-0.634375	51.257500
-464.209991	42.272999	814.411011	-1.491875	-6.685000	54.162498
-320.433014	11.224000	843.752014	-18.261250	-19.210625	37.091251
-368.317993	124.500999	847.716980	-16.174376	-34.606251	31.635626
-249.490005	74.298004	952.210022	-8.246875	-17.618126	21.927500
-173.667007	224.296997	887.244995	-26.963125	-26.976250	26.459999
-263.214996	172.630005	844.666992	-14.380625	-11.458125	29.312500
-268.338989	189.710007	770.247009	-19.000626	-30.051874	17.377501
-158.356003	205.936005	772.809021	13.593125	-36.430626	6.120625
-295.423004	141.886002	755.546021	-0.354375	-9.808750	10.180625
-69.967003	129.014999	1008.513000	-21.993126	-64.723747	-3.535000
-131.028000	111.386002	1010.160034	-22.286249	-63.494373	3.237500
-88.694000	131.333008	994.299988	-37.060623	-61.285000	-20.978125
-26.718000	57.522999	935.679016	-43.001877	-81.436249	-20.059376
8.479000	24.400000	944.096985	-31.364374	-61.910625	-26.350624
154.574005	60.146000	963.739014	-19.967501	-77.161873	-24.613750
-15.494000	-32.695999	1018.760986	-13.720000	-41.921249	-17.163124
170.556000	87.718002	987.346008	-41.151249	-42.555626	-26.626249
209.656998	-47.640999	1062.375977	-56.542500	-86.432503	-15.456875
245.158997	-254.796997	1149.666992	-72.397499	-5.713750	0.157500
363.377014	-88.694000	1437.708984	-52.224377	-16.926874	-30.165625
210.328003	14.335000	917.744995	-60.025002	-72.699371	-33.665627
304.145996	-70.455002	1095.987061	-29.203125	-29.811251	-25.480000
350.384003	-98.027000	1088.301025	-27.033125	-9.616250	-44.428123
386.800995	-312.502991	1218.841064	-36.889999	-29.977501	-28.590626
348.127014	-212.219009	986.004028	11.353125	0.262500	-48.151249
327.325989	-365.268005	1099.159058	-4.160625	2.677500	-30.104376
245.585999	-344.710999	1200.175049	21.096251	26.779375	-44.458752
339.403992	-184.158997	1012.356018	37.773750	-0.293125	-58.970627
354.898010	-252.235001	1095.743042	5.731250	-26.722500	-47.302502
408.882996	-268.399994	996.923035	7.686875	23.961876	-35.923126
287.187988	-253.393997	1017.296997	13.899375	21.459375	-26.516874
317.809998	-288.652008	1174.677002	-4.869375	31.535000	-24.215626
262.360992	-196.419998	1001.254028	-6.479375	35.975624	-30.296875
222.345001	-238.815002	1093.119995	-15.645000	44.012501	-32.541248
236.923996	-249.673004	967.947998	-20.330626	31.351250	-28.669374
226.005005	-314.881989	1020.468994	-26.543125	38.333752	-14.183750
114.924004	-370.330994	932.751038	-33.923752	51.878750	-3.106250
117.181000	-329.460999	937.875000	11.243750	55.435623	-19.468750
88.571999	-309.209015	1020.713013	19.648125	55.422501	-20.330626
67.649002	-255.406998	981.062988	28.083124	43.741249	-23.769375
27.023001	-309.696991	1034.133057	29.889999	68.805626	-8.290625
-68.076004	-289.688995	953.429993	11.073125	65.161247	6.501250
-101.748001	-241.011002	930.432983	18.795000	38.088749	6.505625
-108.702003	-192.638000	946.415039	20.671875	26.057501	9.883125
-63.684002	-182.085007	971.181030	24.482500	23.935625	8.596875
-128.710007	-154.818008	971.973999	11.926250	27.693750	17.858749
-114.924004	-135.602997	940.376038	7.573125	27.956249	32.055626
-130.173996	-144.875000	983.197998	3.941875	29.697500	40.599998
-134.444000	-69.174004	990.822998	5.836250	30.664375	33.595627
-97.417000	-52.094002	954.223022	8.741250	22.999374	34.816250
-200.994995	21.960001	960.932983	5.945625	30.148125	44.415001
-120.353004	-40.748001	946.109985	0.262500	21.901251	40.691875
-239.363998	5.734000	882.121033	-8.815625	34.986874	35.271252
-278.830994	-6.161000	880.962036	-18.357500	25.059999	34.877499
-323.910004	51.972000	862.174011	-21.835625	18.514999	35.853127
-280.843994	-33.000999	823.317017	-15.334375	11.917500	38.661877
-304.938995	-23.607000	841.983032	-2.800000	8.907500	35.590626
-299.205017	-28.304001	745.176025	3.088750	-5.735625	36.723751
-239.486008	-58.560001	853.877991	3.403750	-10.574375	41.492500
-278.098999	-55.205002	802.272034	-8.456875	-15.015000	45.919998
-199.958008	32.025002	809.531006	-8.373750	-25.121250	39.974377
-216.671997	26.657000	832.710999	7.735000	-43.675625	35.752499
-138.225998	197.335007	961.177002	1.955625	-30.948750	27.807501
-75.274002	80.215004	840.763000	-18.309376	-44.275002	34.877499
-57.157001	307.806000	953.491028	-25.528126	-50.741249	33.433750
-36.783001	151.279999	877.911987	-9.253125	-25.567499	34.636875
43.066002	140.604996	1018.700012	-18.318125	-27.645624	38.001251
-66.734001	165.126999	1016.992004	-28.599375	-42.376251	11.751250
192.760010	102.358002	1025.104980	-11.270000	-71.601250	7.170625
67.954002	112.301003	1013.759033	-3.981250	-52.128124	-5.639375
127.124001	114.985001	1029.070068	-2.257500	-35.209999	-7.975625
278.160004	87.047005	1017.296997	0.665000	-42.520626	-21.840000
352.458008	-63.500999	1157.780029	-26.901875	-25.628750	-19.254375
150.059998	8.906000	963.617004	-47.236874	-20.063749	-32.523750
161.650009	18.117001	1064.999023	-43.548752	-49.608124	-30.716875
237.167999	-70.698997	1138.992065	-12.350625	-31.565624	-44.485001
38.003002	26.657000	1082.567017	-26.508125	-41.934376	-57.115623
392.596008	-204.837997	1192.183960	-40.573750	-47.206249	-42.393749
259.554993	-79.422005	953.979004	-20.488125	-37.633751	-28.021875
283.222992	-113.094002	1132.221069	-31.819374	-9.038750	-34.755001
316.651001	-171.471008	1043.770996	-27.711250	-24.552500	-46.392502
354.532013	-20.252001	1161.806030	-10.740625	30.410625	-48.969376
301.889008	-107.055000	1132.648071	-27.243126	25.090626	-40.508125
362.705994	-158.477997	1177.056030	-13.693750	40.206249	-41.177502
306.890991	-152.927002	1164.307007	-27.107500	54.149376	-40.766251
251.014999	-172.507996	1013.393005	-26.744375	31.408125	-44.524376
234.362000	-211.975006	1063.535034	-11.278750	38.762501	-47.210625
193.431000	-233.934998	1060.667969	-13.138125	31.005625	-53.799374
230.518997	-302.621002	1085.983032	-10.294375	3.346875	-56.179375
277.671997	-369.903992	1183.948975	-1.203125	15.115625	-45.736252
107.604004	-410.591003	1038.402954	-1.811250	26.700624	-54.630627
135.115005	-282.979004	1119.593994	9.003750	60.541248	-20.680626
78.873001	-314.272003	1042.368042	2.331875	67.510628	-5.696250
33.672001	-320.799011	1017.541016	-1.054375	56.371876	1.439375
-28.304001	-322.446014	967.093994	-9.091250	48.369999	14.770000
-20.801001	-292.556000	1018.273010	3.990000	56.546875	19.092501
-51.362000	-250.222000	1006.317017	22.098125	56.209999	20.116249
-34.526001	-220.332001	1078.785034	19.928125	56.813751	19.315624
-176.412003	-143.837997	921.466003	9.314375	37.830624	12.013750
-29.463001	-160.917999	1017.053040	4.200000	44.012501	25.606874
-95.770004	-143.716003	800.564026	-1.894375	56.017502	35.988750
-139.873001	-228.932999	910.913025	-1.824375	49.822498	54.801250
-206.912003	-161.955002	758.778992	11.851875	36.924999	50.242500
-208.253998	-98.454002	902.861023	15.793750	25.563126	34.903751
-231.128998	-76.189003	757.802979	5.919375	17.565624	46.541248
-302.011017	-17.812000	842.715027	5.429375	17.115000	48.050625
-274.622009	-17.690001	891.697998	0.210000	23.104376	42.923126
-338.671997	-15.067000	800.075989	-10.841250	5.958750	46.908749
-286.516998	-5.307000	871.263000	-15.168125	3.434375	36.872501
-270.718018	-60.329002	781.104980	-19.919374	1.220625	50.522499
-231.738998	-113.764999	749.872986	-11.729375	8.347500	56.087502
-264.130005	80.336998	609.390015	-10.416875	-22.198750	63.713123
-156.770004	143.837997	796.660034	18.545626	-34.457500	43.592499
-162.076996	130.723007	784.155029	6.724375	-42.840000	49.511875
-75.579002	251.563995	790.864990	9.170000	-68.648125	47.018124
-139.690002	294.264008	1068.354004	-7.853125	-59.040627	36.855000
-30.988001	209.779007	996.434998	-52.858749	-77.398125	26.271875
40.931000	297.009003	1058.716064	-38.119373	-66.801872	26.683125
43.188000	244.671005	1018.517029	-20.965000	-33.643749	5.088125
-44.347000	283.345001	960.322998	-48.755001	-50.855000	-6.111875
24.948999	142.984009	918.233032	-33.796875	-36.382500	-25.956875
140.848999	5.246000	1162.660034	-42.231876	-40.705002	-21.188126
213.255997	-137.371994	1225.489990	-53.348751	-47.407501	-29.238125
98.759003	-203.374008	1127.890015	-27.584375	-46.646252	-32.151875
274.072998	-193.553009	1432.890015	9.979375	-3.815000	-42.131248
-2.318000	-212.645996	1197.063965	-12.127500	-7.739375	-29.618750
114.252998	-309.148010	1181.692017	-9.275000	-34.033127	-41.299999
146.033997	-201.300003	1114.713989	1.220625	-22.264376	-54.556252
104.737000	-225.151001	1042.185059	-10.775625	-16.318750	-45.701248
208.742004	-205.387009	1030.717041	-2.782500	-5.810000	-36.951248
202.764008	-153.537003	990.762024	7.293125	7.319375	-36.439377
215.330002	-120.536003	959.041992	-8.456875	-0.091875	-37.769375
227.895996	-95.831001	965.080994	-11.821250	-2.996875	-30.353750
241.559998	-127.734001	968.741028	-11.046875	-3.710000	-20.457500
229.298996	-162.503998	989.603027	-5.604375	2.327500	-23.143749
249.917007	-169.031006	1005.280029	-7.354375	-1.255625	-22.780624
208.315002	-228.628006	1054.446045	-14.428750	0.953750	-24.377501
262.726990	-275.597992	972.828003	-16.170000	-4.873750	-28.643126
294.996002	-267.363007	1037.305054	-7.656250	-3.845625	-23.156876
215.574005	-162.138000	1012.783020	1.680000	13.181875	-8.623125
283.222992	-55.632000	1000.705017	5.350625	-3.202500	-10.675000
266.692017	45.932999	1104.466064	0.214375	4.405625	-8.933750
261.812012	51.300999	1048.162964	-9.970625	7.621250	-18.878124
247.660004	16.836000	1150.765015	-20.492500	14.183750	-23.384375
202.641998	13.054000	1141.005005	-26.411875	18.821251	-42.879375
320.799011	-82.594002	1111.786011	-13.825000	14.118125	-37.235626
194.589996	-157.319000	1295.640015	-24.303125	44.034374	-26.079374
152.805008	-291.031006	1065.364990	-28.476875	35.800625	-22.360624
141.093002	-300.791016	1151.619019	-11.405625	39.768749	-35.026249
147.925003	-379.968994	993.934021	-2.244375	27.908125	-21.131250
153.048996	-385.459015	1067.744019	34.807499	60.156250	-30.336250
126.819000	-375.515991	952.759033	19.897499	55.588749	-7.367500
-17.629000	-381.677002	956.785034	22.636250	57.141876	-5.923750
-16.226000	-340.257996	924.638000	33.788124	45.876251	-12.726875
11.712000	-258.334991	987.590027	28.870625	37.603127	2.240000
-50.630001	-256.687988	923.052002	11.733750	49.778751	18.055626
-62.769001	-209.596008	959.713013	7.052500	42.695625	22.780624
-115.350998	-153.292999	929.762024	5.591250	37.415001	21.376249
-164.456009	-141.337006	908.533997	1.706250	39.681252	27.308750
-195.199997	-101.198997	856.257019	-9.826250	38.701248	46.191250
-165.554001	-201.483002	911.767029	-8.929375	37.651249	49.035000
-186.354996	-124.318001	852.169983	-7.144375	30.900625	39.427502
-208.315002	-151.462997	877.546021	-4.991875	24.281250	39.353127
-271.205994	-39.711002	799.100037	-5.289375	16.896250	42.227501
-214.110001	-86.742004	818.070984	-9.835000	2.375625	55.050625
-248.514008	16.042999	802.760010	-8.649375	12.390000	61.223751
-216.671997	-63.806000	737.612000	-11.646250	6.291250	61.608749
-146.583008	-4.026000	779.335999	-10.220000	-2.568125	48.768124
-164.151001	63.257000	673.806030	-8.894375	-20.719999	61.250000
-207.095001	148.901001	756.705017	-0.293125	-18.878124	52.001251
-99.430000	29.463001	628.056030	-11.278750	-19.888750	72.725624
-213.805008	165.919998	831.429993	-6.829375	-30.576876	67.738129
-202.886002	71.370003	866.017029	13.243125	-42.695625	28.691250
-94.062004	194.589996	946.903015	9.073750	-64.124374	19.075001
-184.281006	219.417007	890.539001	-2.528750	-70.656250	8.251250
69.600998	164.029007	1096.841064	-21.017500	-72.760628	16.878750
28.243000	234.667007	1243.240967	-39.309376	-50.452499	20.295626
-20.130001	34.098999	1236.348022	-33.713749	-48.352501	12.280625
2.562000	91.134003	1146.860962	-40.263126	-18.834375	-9.546250
161.955002	53.375000	920.307007	-26.140625	-53.217499	-29.526875
37.820000	3.904000	1201.089966	-18.431875	-36.924999	-15.767500
100.040001	-62.830002	1188.951050	-11.453750	-12.359375	-19.998125
226.066010	-32.085999	926.590027	-12.823125	-52.609375	-37.314377
155.001007	-77.958000	1109.223999	-22.846251	-17.259375	-25.112499
322.567993	-98.576004	1136.917969	-13.160000	12.617500	-30.651251
130.966995	-147.009995	940.437012	-12.433750	-29.933750	-33.359375
234.179001	-224.723999	1199.260010	-18.821251	-12.573750	-37.957500
170.556000	-227.042007	1005.218994	-13.107500	-16.935625	-36.614376
246.440002	-227.652008	1280.755981	-19.971874	10.145625	-43.404373
244.000000	-180.194000	1097.328979	-22.968750	-11.112500	-45.955002
270.962006	-219.904999	1018.700012	-15.172500	-1.938125	-44.043125
322.628998	-215.025009	1148.691040	-9.323125	19.713751	-36.474377
190.869003	-183.122009	1020.530029	-7.997500	26.101250	-29.566250
177.388000	-199.958008	1029.253052	-3.946250	21.708750	-29.863750
189.953995	-164.761002	1088.118042	9.288125	13.308750	-38.071251
211.487000	-203.434998	935.374023	15.557500	18.917500	-25.016251
120.902000	-184.098007	974.658020	20.523125	26.556250	-18.462500
180.255005	-204.106003	969.656006	5.285000	3.696875	-20.623751
170.128998	-130.906006	1073.355957	2.900625	31.084375	-14.533750
136.762009	-124.745003	1011.867981	-3.101875	12.871250	-2.773750
186.721008	-121.939003	1132.037964	-2.747500	28.669374	4.370625
64.171997	-141.520004	939.338989	-5.928125	16.856874	1.776250
70.698997	-140.056000	1086.837036	-13.282500	13.746250	-10.136875
78.995003	-141.641998	1032.546997	-22.736876	4.055625	-26.722500
108.092003	-214.658997	1019.432007	-17.049376	9.747500	-28.629999
55.205002	-174.764999	1060.546021	0.503125	26.481874	-30.568125
91.865997	-212.035995	1062.437012	11.886875	21.538124	-18.843124
31.842001	-175.863007	1049.870972	15.312500	12.713750	-12.473125
41.723999	-265.654999	1158.024048	10.478125	7.774375	-4.195625
59.658001	-249.977997	1161.500977	15.645000	21.091875	-7.157500
7.930000	-275.170990	1132.281982	8.929375	30.471874	-8.133125
73.871002	-202.886002	1126.120972	2.493750	20.251875	-2.839375
-11.651000	-245.281006	1055.483032	10.578750	50.837502	2.148125
-22.264999	-153.598007	1024.190063	2.493750	43.907501	6.055000
-49.471001	-196.602997	965.325012	3.329375	27.282499	23.428125
-177.876007	-98.087997	958.309998	5.670000	25.501875	16.966249
-129.746994	-218.441010	852.353027	-2.419375	41.133751	36.491875
-101.382004	-166.957001	960.872009	0.170625	33.180000	31.294374
-140.117004	-163.541000	989.786011	1.929375	34.601875	27.339375
-124.562004	-195.566010	842.471008	6.685000	25.681250	29.386875
-106.322998	-148.108002	919.635986	2.375625	32.703125	34.085625
-224.785004	-113.399002	907.619019	-10.211250	36.898750	38.849998
-250.160995	-59.109001	885.903015	-13.063750	24.241875	43.351875
-199.897003	-91.744003	859.916992	-6.308750	4.781875	45.998749
-214.598007	-49.288002	899.811035	-1.500625	15.330000	47.083752
-159.942001	-98.087997	822.768005	9.625000	-1.089375	42.376251
-222.772003	-53.070000	922.380981	-1.964375	4.672500	23.423750
-103.211998	-62.159000	792.085022	-5.486250	-12.490625	27.566875
-205.997009	-27.389000	925.431030	-1.684375	-2.135000	19.446875
-75.701004	14.640000	845.947998	-20.693750	-16.533125	31.801874
-177.570999	77.958000	803.309021	-9.559375	-1.023750	49.105000
-249.551010	16.226000	760.242981	-11.077500	-1.666875	34.107498
-112.239998	75.152000	904.080994	-23.086876	-12.525625	43.614376
-252.417999	166.042007	871.202026	-9.340625	-14.691250	42.096249
-182.572998	-9.516000	782.569031	-13.759375	-20.405001	69.711250
-184.403000	148.046997	810.445984	-7.109375	-35.139999	46.978748
1.342000	205.082001	899.750000	-10.036250	-50.649376	30.379999
-110.531998	146.826996	900.848022	-13.868750	-30.834999	18.584999
3.965000	154.757004	872.299988	-26.849375	-51.939999	6.203750
-42.821999	50.691002	1059.082031	-49.673752	-52.836876	18.956875
-102.723999	29.951000	989.603027	-52.766876	-24.561251	1.653750
52.704002	8.784000	1219.755981	-16.336250	-45.281250	-6.943125
2.562000	16.165001	1288.015015	0.083125	-50.491875	-16.572500
226.249008	-32.330002	1121.119019	-7.826875	-85.434998	-34.326248
303.902008	-44.591000	1169.187012	-6.304375	-38.215626	-42.433125
260.287018	11.407001	1025.654053	29.063126	-50.102501	-46.650623
286.212006	-14.091001	1080.980957	4.401250	-5.792500	-37.830624
114.557999	-46.970001	1114.104004	-31.259375	29.273125	-37.891876
-13.420000	18.239000	980.697021	-12.608750	-8.907500	-55.584373
270.412994	-96.075005	1208.776001	6.553750	-27.125000	-58.253124
154.025009	-64.538002	1110.016968	-16.852501	-6.098750	-40.420624
196.298004	-134.382996	1003.083984	-16.008125	-22.636250	-48.461876
335.622009	-147.863998	1146.006958	-21.958124	-6.733125	-43.251251
230.885010	-111.813004	996.191040	-42.402500	16.222500	-31.167500
185.318008	-134.505005	1099.890991	-4.475625	7.118125	-47.083752
286.028992	-176.595001	1063.046997	-29.955626	-19.796875	-42.791874
254.003998	-240.949997	951.234009	-13.978125	-24.731874	-38.381874
263.703003	-236.130997	1133.989990	-21.717501	19.591249	-38.403751
232.410004	-226.981003	1060.729004	-36.045624	6.956250	-43.408749
134.505005	-157.074997	903.776001	-13.545000	-28.157499	-46.965626
230.397003	-211.975006	1152.167969	-1.203125	-4.431875	-45.088749
255.834000	-193.065002	1075.307983	-4.309375	-2.432500	-35.616875
200.385010	-239.486008	971.791016	3.241875	8.907500	-24.171875
217.038010	-244.365997	958.676025	5.871250	20.225624	-34.938751
220.087997	-170.128998	1012.539001	9.690625	22.640625	-28.533751
277.183990	-211.731003	1100.317993	5.162500	26.368126	-22.483126
215.940002	-159.880997	944.158020	-7.249375	25.318125	-3.412500
150.059998	-245.037003	1100.196045	-6.558125	37.296875	2.331875
220.514999	-237.716995	991.372009	-22.701876	21.538124	7.721875
82.716003	-160.917999	939.643982	-14.647500	38.167500	9.765000
157.136002	-201.483002	1011.075012	-3.955000	27.540625	5.836250
102.053001	-190.807999	951.905029	-1.872500	27.505625	8.561875
69.905998	-154.878998	956.541016	19.516874	23.839375	-1.102500
43.737000	-140.056000	1063.412964	27.978125	19.389999	1.093750
30.927000	-48.312000	1085.006958	20.671875	13.304375	-1.343125
65.453003	-136.335007	1077.565063	16.069374	14.021875	3.053750
-23.241001	-110.410004	1069.635010	18.514999	24.622499	-4.475625
22.814001	-135.847000	1085.921997	17.456249	20.671875	-3.762500
-53.313999	-135.664001	1074.515015	19.967501	29.758751	-2.463125
-76.677002	-103.944000	1082.445068	18.313749	29.592501	-1.373750
4.331000	-155.306000	1138.565063	10.430000	32.256874	11.869375
-94.488998	-158.234009	1036.817017	8.868125	39.143124	8.369375
-26.535000	-105.957001	996.312988	10.880625	34.916874	1.553125
-136.639999	-46.970001	933.848999	1.351875	41.501251	17.110624
-153.110001	-23.973000	915.854004	7.389375	36.356251	20.050625
-195.871002	-36.660999	932.324036	-0.958125	31.272499	24.876249
-128.893005	-41.663002	924.942993	-5.053125	26.433750	32.724998
-219.417007	-103.944000	937.814026	-9.572500	36.395626	36.955624
-207.156006	-53.618999	898.103027	-10.031875	29.325624	31.898125
-158.722000	-106.322998	944.768005	-4.493125	18.746876	29.942499
-227.591003	-79.422005	916.158997	-4.440625	27.304375	24.911249
-231.678009	-44.225002	916.220032	3.276875	25.869375	27.956249
-218.990005	-78.080002	856.013000	-5.276250	18.230625	42.673752
-356.606018	-35.746002	910.424988	3.451875	18.326876	33.250000
-279.257996	21.167000	866.871033	-15.855000	0.223125	26.595625
-231.678009	-4.575000	801.296021	-17.430000	12.499375	57.277500
-333.731018	19.337000	751.153992	2.257500	9.870000	42.288750
-194.834000	27.999001	761.096985	11.016250	-1.439375	32.055626
-258.884003	55.754002	763.781006	-0.118125	-10.045000	38.311874
-277.916016	86.986000	799.161011	1.649375	-11.668125	31.500000
-157.501999	116.388000	753.838013	-2.450000	-22.448126	42.643124
-225.639008	110.593002	875.593994	-10.031875	-23.887501	49.139999
21.106001	215.085999	934.764038	-10.963750	-48.055000	43.981876
-22.264999	244.122009	865.406982	-24.154375	-9.625000	60.449375
-169.275009	253.699005	837.346985	-3.281250	-9.200625	47.372501
-72.528999	292.373016	969.595032	10.298750	-10.040625	31.609375
-178.729996	334.890015	949.892029	20.264999	11.335625	33.411877
-98.514999	299.998016	1001.315002	14.463750	-24.290001	15.400000
-134.992996	242.841003	866.992981	-18.615625	-17.692499	1.728125
-50.813000	276.513000	976.000000	0.100625	-36.855000	-6.973750
-176.900009	251.259003	1041.331055	22.653749	-35.595001	-7.253750
-72.590004	304.938995	1066.828979	-14.542500	-30.428125	-12.092500
17.446001	295.179016	1181.020996	26.814375	-16.069374	-8.058750
-45.018002	271.266998	1018.273010	-7.293125	-51.646873	-21.048124
13.420000	262.483002	1078.602051	-30.222500	-40.433750	-31.674999
69.662003	201.788010	1161.744995	-38.132500	-34.619373	-43.264374
41.907001	162.199005	1115.202026	-30.830626	-35.100624	-35.301876
28.914000	153.171005	1032.729980	-7.315000	-23.047501	-42.485626
28.670000	-50.142002	1080.310059	-4.987500	-33.162498	-14.179375
62.403000	-36.478001	1204.018066	7.293125	-37.791248	-14.726250
174.277008	-27.023001	1061.277954	10.180625	-31.290001	-37.843750
151.462997	26.047001	1149.728027	-44.099998	-2.616250	-7.752500
85.400002	11.590000	959.041992	-5.740000	-10.832500	-17.657499
-24.888000	-7.442000	1059.997070	-1.089375	4.414375	-21.621250
117.425003	24.521999	1141.005005	-15.330000	-7.813750	-29.693125
187.819000	-26.108000	1009.733032	-21.231874	-26.215000	-23.664375
110.410004	-76.494003	1053.713989	-16.309999	10.027500	-24.880625
178.791000	-15.128000	1039.440063	-22.111250	4.720625	-28.739374
174.582001	54.595001	1056.885986	-25.440624	-19.201876	-30.541876
228.079010	8.174000	1060.973022	-30.358126	14.275625	-31.233126
192.028000	13.237000	1018.333984	-37.550625	-2.353750	-42.455002
261.873016	-74.969002	1153.021973	-36.343124	20.391874	-36.470001
93.573997	-95.770004	1013.454041	-26.814375	17.241875	-36.601250
141.154007	-140.056000	1091.777954	-6.610625	21.196875	-51.541874
215.940002	-174.582001	1244.644043	-11.121250	5.171250	-37.655624
92.354004	-163.358002	1054.446045	-0.743750	-1.185625	-40.403126
169.945999	-242.535995	1195.112061	7.183750	13.938750	-39.514999
55.937000	-109.495003	1144.115967	10.438750	-1.627500	-60.138748
204.289001	-199.408997	1191.940063	24.093124	32.099377	-40.044376
67.649002	-132.919006	1181.997070	19.687500	32.528126	-36.365002
71.065002	-253.089005	1239.458984	13.934375	30.786875	-13.615000
63.989002	-267.667999	1150.643066	13.282500	41.995625	-15.911875
114.497002	-261.385010	1110.139038	13.068125	38.657501	-6.934375
35.868000	-298.351013	1096.901978	13.711250	64.076248	10.198125
-33.123001	-190.442001	996.923035	17.548124	63.818127	16.808750
42.090000	-247.354996	1059.326050	17.438749	51.397499	22.916250
-46.299000	-139.445999	885.598022	14.665000	60.287498	29.820000
-30.743999	-168.115997	899.384033	0.017500	64.592499	23.275000
-91.500000	-140.421997	704.976990	-21.174999	74.488747	25.620001
-267.179993	-229.115997	778.726013	-2.870000	57.119999	30.664375
-309.453003	-135.298004	728.828003	-4.401250	37.393124	43.920624
-297.679993	-122.000000	590.236023	-22.456875	23.843750	68.971878
-256.078003	-117.791000	701.134033	-19.831875	19.490625	70.940628
-131.516006	-0.427000	676.429016	-3.285625	9.450000	59.136875
-214.292999	147.559006	664.106995	-0.542500	-5.044375	56.126877
-120.292000	217.221008	746.213013	-6.339375	-11.681250	60.453751
-134.199997	257.602997	711.626038	-25.291876	-21.455000	61.070625
-15.677000	189.283005	747.554993	-24.924376	-21.787500	56.691250
-153.475998	341.477997	644.708984	-17.154375	-43.522499	67.440628
-23.485001	424.987000	847.960999	-2.384375	-7.770000	89.635002
-271.205994	283.894012	716.932983	31.762501	-69.693748	68.739998
50.507999	324.337006	1195.843994	-1.570625	-67.974373	43.045624
60.695000	213.012009	939.217041	-37.345001	-60.475624	30.747499
89.792000	288.041992	928.603027	-34.973751	-80.176247	-2.931250
201.238998	250.770996	988.444031	-32.471249	-63.735001	-4.786250
60.633999	135.602997	742.247986	-41.930000	-30.668751	-2.318750
291.458008	235.399002	1026.203003	-7.468125	-41.120625	-25.576250
47.153000	238.143997	1102.270020	-25.873751	-36.321251	-24.193750
338.183990	223.260010	1185.229980	-15.102500	-62.151249	-41.851250
158.904999	221.917999	1251.902954	-6.431250	-14.262500	-53.563126
439.078003	156.404007	1221.219971	-14.052500	-6.930000	-37.935623
180.255005	67.892998	1122.704956	-9.944375	-28.918751	-17.145624
212.279999	95.891998	1324.553955	-9.559375	-10.513125	-21.713125
387.532990	9.699000	1147.837036	-21.122499	-29.421875	-26.451250
121.634003	-41.785000	1182.729004	-11.169375	-46.584999	-40.223751
266.020996	-16.896999	1274.046021	-10.101875	-22.133125	-50.089375
275.049011	-114.192001	1179.008057	-24.985624	-32.523750	-48.544998
301.035004	-159.087997	1072.989990	-14.560000	-13.772500	-49.371876
234.789001	-109.007004	1078.846069	-5.158125	14.262500	-48.317501
297.558014	-138.958008	983.075989	1.098125	12.530000	-42.529373
254.675003	-172.751999	983.564026	12.350625	27.855625	-24.740625
200.385010	-198.555008	904.752014	6.689375	16.695000	-21.196875
256.809998	-167.018005	894.565002	6.151250	6.986875	-15.658125
203.191010	-134.932007	849.486023	12.376875	11.090625	-9.480625
197.762009	-85.827003	896.212036	10.163125	8.365000	-7.336875
250.770996	-70.150002	911.705994	0.371875	-14.441875	-1.356250
238.449005	-37.453999	909.754028	1.190000	-10.447500	1.719375
189.344009	-37.881001	951.051025	0.061250	-29.618750	3.014375
324.519989	-67.954002	937.692017	-8.964375	-8.872500	6.986875
278.526001	-130.052002	1007.171021	-0.743750	-6.203750	21.975624
251.259003	-147.498001	1006.500000	11.322500	2.550625	10.482500
276.147003	-93.147003	1047.308960	12.801250	10.968125	3.657500
281.270996	-31.964001	1098.427002	8.715000	3.451875	7.888125
224.906998	-10.553000	1008.635010	13.663125	12.337500	16.625000
287.798004	-38.612999	1148.751953	11.624375	5.232500	21.498751
253.638000	33.611000	1061.094971	9.865625	2.695000	13.628125
292.860992	48.799999	1050.114990	16.152500	13.895000	23.878750
205.143005	179.218002	907.130981	-5.801250	28.721874	18.204374
242.231003	161.283997	969.533997	3.460625	13.685000	10.416875
234.301010	186.843002	1024.983032	7.774375	24.263750	12.232500
243.572998	128.283005	1008.208008	-1.745625	25.046875	21.441875
262.117004	99.674004	1046.333008	-1.623125	4.668125	26.285000
236.497009	55.815002	1033.523071	1.430625	14.231875	16.563749
250.587997	151.462997	1065.182007	0.507500	22.920626	15.168125
160.247009	143.899002	1060.057983	-3.815000	15.535625	27.278126
172.141998	145.790009	1047.065063	-3.119375	8.400000	13.453125
99.369003	145.057999	1119.716064	-9.205000	20.930000	26.359375
191.662003	100.284004	1129.536987	6.273750	22.133125	24.780001
3.904000	173.727997	1173.274048	13.361250	67.388123	13.982500
-7.259000	260.042999	1034.926025	17.080000	31.858749	-5.709375
184.768997	191.356995	1152.838989	15.596875	22.141874	22.815624
127.917000	135.237000	1080.980957	18.007500	57.286251	28.643126
66.612000	170.251007	1039.623047	12.678750	42.468124	-3.377500
124.928001	195.382996	1045.113037	4.169375	26.971874	-0.953750
27.694000	193.736008	1048.162964	4.816875	53.449375	-1.006250
35.441002	164.699997	1001.254028	-3.823750	52.955002	-6.151250
-84.485001	101.992004	937.752991	5.687500	68.630623	-13.160000
-136.152008	146.888000	851.132996	-3.473750	39.252499	-25.466875
-238.570999	182.938995	868.700989	-1.260000	46.943748	-30.856874
-172.081009	145.973007	859.429016	-2.848125	30.953125	-30.935625
-197.822998	159.453995	830.453979	4.681250	32.379375	-21.411249
-260.835999	125.538002	807.945007	14.770000	32.344376	-17.342501
-234.362000	92.598000	826.122986	0.857500	37.209373	-15.548750
-369.843018	164.944000	739.625000	6.903750	20.702499	-35.122501
-303.597015	91.927002	743.895020	13.435625	-0.122500	-42.586250
-318.907990	123.098000	769.515015	8.662500	5.858125	-43.540001
-332.144989	9.943000	699.609009	14.831250	-9.909375	-35.131248
-332.938019	11.468000	737.062988	2.598750	-11.366250	-33.792500
-278.343018	-43.737000	764.085999	0.494375	-22.207500	-31.005625
-353.251007	17.934000	716.018005	10.443125	-37.926876	-37.410625
-198.005997	-63.318001	859.916992	8.531250	-41.654373	-43.894375
-336.597992	62.890999	757.559021	6.243125	-42.507500	-35.384998
-43.920002	-69.479004	849.608032	34.737499	-62.711250	-40.180000
-237.107010	-12.993000	975.877991	11.795000	-41.986874	-49.153126
-25.437000	-27.328001	861.259033	-8.723750	-73.828125	-22.802500
-129.930008	-88.571999	1017.846008	-15.771875	-22.351875	-10.193750
-86.253998	-240.279007	1116.971069	-12.818750	-33.529999	-6.260625
-212.768005	-156.098999	1092.692993	-6.623750	-26.674376	-18.567499
-63.500999	-67.954002	1025.654053	-5.175625	-49.253750	-31.906876
-49.166000	-104.431999	1091.229004	-15.518125	-38.771252	-1.098125
-23.363001	-121.756004	1051.578979	-0.078750	-22.190001	4.694375
8.296000	-108.945999	1058.411011	14.170625	-3.784375	13.982500
-44.957001	-64.781998	1029.313965	4.081875	-23.248751	21.170626
136.762009	-40.687000	998.082031	24.416876	-26.818750	9.458750
74.907997	-75.029999	1068.902954	42.459373	1.758750	22.859375
128.527008	15.555000	1020.103027	-5.880000	-46.235001	49.205624
28.609001	-67.892998	1082.018066	15.163750	-25.283125	45.241875
82.777000	95.098999	1168.698975	4.445000	-13.680625	23.073750
227.469009	-6.893000	1108.004028	-14.350000	-54.661251	22.001875
179.949997	-11.468000	1136.552002	1.303750	-19.285000	34.046249
33.123001	61.976002	1092.571045	-7.021875	-11.309375	12.621875
306.403015	113.277000	1124.473999	-15.478750	-52.762501	3.154375
204.654999	50.264000	972.645020	5.079375	-20.251875	38.198124
106.079002	160.856995	1102.818970	13.177500	25.388124	30.935625
278.709015	148.169006	1101.843018	-33.963123	-21.621250	29.693125
238.205002	66.489998	1141.614990	-29.557501	3.793125	34.986874
181.231003	49.043999	1030.534058	-12.254375	39.151875	19.223749
206.363007	-25.193001	1127.584961	-6.881875	18.659374	17.237499
159.453995	-35.075001	1078.846069	-1.570625	3.600625	1.815625
98.454002	-40.382000	1047.979980	0.376250	12.302500	4.576250
123.159004	-132.003998	1118.678955	-9.069375	13.685000	9.594375
179.522995	-167.139999	1075.003052	-2.953125	-22.413124	-2.283750
170.861008	-161.100998	1090.680054	6.050625	-2.633750	7.144375
153.964005	-111.934998	1092.510010	3.171875	11.694375	9.121875
260.897003	-138.531006	1238.727051	-7.503125	-9.555000	21.135626
130.723007	-55.449001	1211.765015	-9.861250	26.591249	35.910000
257.420013	-122.366005	1225.855957	-18.116875	42.778751	49.686874
57.096001	3.843000	1089.399048	-4.773125	49.358749	39.501877
-3.416000	-58.681999	1022.238037	10.631250	45.530624	28.857500
231.373001	240.766998	1204.384033	28.783125	18.125626	6.969375
158.783005	212.951004	1113.372070	13.142500	79.165627	44.646873
23.118999	218.441010	958.798035	10.626875	66.526253	40.722500
82.837997	191.356995	1091.229004	17.311874	49.039375	27.461876
-73.504997	217.770004	967.093994	11.239375	60.506248	19.853750
-129.014999	134.809998	976.915039	4.261250	60.379375	12.495000
-123.280998	137.921005	893.710999	-11.291875	52.972500	-8.106875
-213.317001	126.941002	822.828979	20.794374	51.113125	-15.347500
-191.723007	74.114998	887.611023	23.261875	34.173126	-31.193750
-227.164001	178.119995	848.449036	15.771875	36.505001	-28.183750
-252.235001	96.501999	827.098999	32.204376	39.733749	-25.383751
-213.561005	104.249001	834.906982	17.858749	32.698750	-28.039375
-289.993988	100.284004	815.325989	10.101875	30.975000	-23.747499
-295.666992	41.174999	816.790039	15.820000	23.668751	-29.605625
-299.937012	92.780998	752.923035	26.696251	16.764999	-30.288124
-355.080994	39.711002	778.604004	22.701876	7.288750	-36.343124
-293.166016	92.292999	777.872009	13.593125	1.391250	-31.946251
-356.606018	27.205999	711.138000	15.916250	-5.534375	-31.867500
-344.649994	30.195000	762.682983	14.253750	-4.103750	-29.426250
-353.617004	56.364002	661.911011	23.082500	-29.150625	-39.147499
-364.718994	-22.326000	811.239014	33.140625	-30.913750	-37.327499
-275.231995	36.844002	781.653992	17.088751	-47.267502	-40.407501
-251.625000	-91.744003	906.093994	13.405000	-36.128750	-30.261875
-268.826996	-60.817001	934.764038	19.293751	-60.011875	-49.625626
-194.589996	-155.428009	1012.721985	6.658750	-49.945000	-50.671249
-223.869995	-21.777000	904.264038	9.856875	-65.445625	-48.260624
-136.274002	-151.218994	1045.417969	32.011875	-43.955624	-33.499374
-172.020004	-6.527000	979.049988	16.795626	-42.568748	-34.168751
-96.989998	-59.109001	969.229004	-1.951250	-60.103748	-13.650000
-66.489998	-60.389999	1010.281982	-14.188125	-43.876877	-0.258125
-94.733002	-73.261002	993.324036	-17.180626	-34.396252	-2.174375
21.655001	-49.959000	1007.109985	-13.925625	-54.346249	8.881250
25.315001	-62.525002	1060.973022	1.868125	-34.361252	21.629999
49.105000	-46.726002	1090.619019	-29.233749	-52.814999	27.610624
109.190002	-118.401001	1127.707031	-14.358750	-42.783127	26.525625
-43.675999	28.365000	1174.738037	-3.613750	6.265000	16.314375
7.747000	86.253998	1028.643066	-28.940624	-52.040627	11.506250
292.373016	-80.336998	1236.409058	-22.483126	-58.646873	29.369375
142.800995	-111.996002	1112.640015	-2.821875	19.661249	38.290001
125.538002	-97.599998	1009.001038	4.431875	10.959375	25.248125
198.250000	-83.814003	1147.044067	8.719375	-11.488750	21.039375
126.941002	-26.352001	1007.354004	0.599375	10.893750	20.356874
157.074997	-57.096001	1096.047974	3.898125	-2.310000	25.615625
143.960007	-68.990997	995.458984	-8.120000	-11.042500	24.219999
144.082001	-65.453003	1025.898071	-2.270625	-2.611875	20.068125
113.216003	-74.724998	1004.242981	-9.353750	-1.470000	19.320000
160.307999	-54.595001	1025.837036	-10.080000	-24.920000	12.932500
150.852997	-50.691002	1057.495972	0.262500	-9.878750	9.856875
153.171005	-69.784004	1116.544067	2.082500	-14.310625	8.645000
222.833008	-60.817001	1121.729004	5.582500	-16.970625	14.581875
214.292999	-54.716999	1087.995972	11.663750	11.571875	11.978750
205.630997	-7.808000	1077.077026	8.168125	9.165625	3.819375
240.401001	-47.702000	1025.654053	15.868125	-10.272500	11.200000
165.309998	-27.877001	1000.583008	17.373125	-5.630625	11.025000
199.775009	-62.586002	1035.597046	13.050625	-6.037500	17.688126
164.944000	-100.589005	1090.497070	1.356250	-7.870625	20.719999
219.173004	-151.402008	1102.148071	-7.052500	-14.787500	14.459375
296.947998	-83.142998	1061.583008	5.127500	-14.249375	-1.478750
232.410004	-34.160000	1138.015991	11.042500	8.750000	18.396875
349.225006	-91.439003	1135.453979	0.126875	10.408125	22.211876
234.423004	18.910000	1050.480957	-3.084375	18.160625	21.717501
252.173996	33.306000	1107.027954	2.117500	44.918125	27.138124
174.520996	123.159004	1072.380005	17.084375	42.511875	46.480000
129.563995	93.330002	1011.867981	9.970625	57.955624	47.376877
52.094002	130.356995	1016.320984	-7.148750	61.009377	63.910000
95.648003	117.425003	958.614990	3.473750	63.398125	47.582500
57.401001	118.706001	941.108032	3.740625	50.719376	31.237499
36.539001	159.759003	851.987000	3.867500	55.059376	28.507500
-94.123001	92.842003	875.166992	3.281250	52.657501	29.334375
-100.100998	71.980003	873.398010	-3.548125	43.058750	27.759375
-155.488998	64.965004	881.632996	-4.576250	41.251877	17.898125
-203.130005	22.570000	879.315002	-1.281875	22.010626	2.966250
-228.567001	12.383000	942.083984	-2.445625	12.967500	-1.102500
-227.895996	14.579000	952.575989	0.354375	9.594375	-2.922500
-237.595001	-8.845000	978.684021	4.335625	9.966250	-1.942500
-212.035995	14.579000	953.979004	5.775000	3.959375	-4.528125
-250.893005	-10.065001	935.984009	1.172500	4.353125	-1.964375
-240.462006	-22.143000	968.802002	0.249375	6.711250	-0.503125
-245.708008	-1.769000	979.781982	-2.078125	2.760625	-4.195625
-263.153992	-10.919000	1019.981018	-1.115625	2.664375	-2.126250
-254.309006	-14.884000	1030.350952	0.061250	7.542500	-1.190000
-250.344009	0.183000	1008.635010	-0.157500	9.218125	-3.202500
-259.920990	14.030000	958.798035	-1.010625	10.281250	-3.535000
-284.565002	15.006001	1047.735962	-7.074375	13.912500	-2.178750
-279.319000	10.980000	996.739990	-5.648125	14.428750	-0.555625
-307.135010	12.322001	1005.707031	-2.218125	14.415625	-3.622500
-262.787994	-1.708000	966.789001	-0.695625	10.605000	-5.328750
-291.824005	-10.675000	955.565002	-0.953750	15.579375	-5.932500
-318.114990	2.440000	971.242004	-4.760000	15.194375	-8.137500
-308.233002	-4.819000	938.911987	-3.167500	11.060000	-7.997500
-305.670990	-21.167000	870.286987	-3.644375	6.514375	-10.928750
-318.237000	-32.635002	867.908020	-2.900625	5.079375	-8.916250
-346.419006	-68.442001	878.643982	-2.121875	4.834375	-6.510000
-339.709015	-53.313999	874.130005	-2.498125	-4.025000	-9.205000
-336.658997	-55.144001	878.827026	1.015000	-8.439375	-8.820000
-320.494019	-57.218002	921.710022	2.283750	-10.049375	-6.925625
-319.640015	-41.480000	921.221985	0.691250	-12.910625	-4.930625
-327.265015	-30.988001	958.005005	6.208125	-16.248751	-5.031250
-329.644012	-23.607000	1022.665039	4.392500	-14.494375	-6.685000
-323.117004	-24.521999	1065.426025	-2.226875	-10.723125	-4.353125
-264.984009	-81.313004	1038.402954	-5.884375	-2.721250	-6.584375
-265.227997	-44.103001	1007.963989	-3.793125	-0.910000	-10.049375
-271.389008	-57.950001	984.845032	1.351875	0.581875	-7.870625
-245.341995	-64.233002	996.252014	1.833125	3.093125	-5.630625
-271.632996	-29.585001	975.755981	-0.673750	5.145000	-7.910000
-241.926010	-30.012001	989.786011	-0.520625	1.723750	-8.491875
-272.304016	-56.424999	968.619019	-0.481250	5.302500	-5.713750
-312.259003	15.860001	1102.331055	3.220000	9.021250	-7.739375
-301.950012	24.583000	1075.247070	13.877500	8.680000	-5.993750
-276.756989	79.848999	1007.171021	15.334375	15.356250	-7.223125
-289.140015	-39.223000	904.569031	7.223125	8.146250	-3.171875
-331.412994	-75.152000	839.481995	14.000000	13.943125	-1.067500
-312.990997	-83.631004	840.335999	13.251875	7.914375	-8.579375
-389.545990	-93.513000	804.223999	5.967500	-5.180000	-16.069374
-328.424011	-93.330002	798.429016	5.897500	-18.554375	-19.306875
-313.295990	-83.997002	844.728027	5.871250	-21.533751	-14.350000
-376.126007	-69.052002	806.968994	1.316875	-31.810625	-12.442500
-188.977997	-36.966000	776.773987	-0.441875	-45.053749	-8.942500
-237.900009	12.017000	789.462036	9.800000	-35.936249	3.154375
-185.988998	42.456001	935.312988	11.003125	-56.249374	7.297500
-151.341003	7.808000	1050.603027	-5.171250	-55.868752	11.602500
-101.931000	-8.174000	1079.089966	-16.038750	-38.294376	8.190000
-79.483002	0.671000	1074.942017	-21.424376	-52.998749	-3.167500
-5.978000	-42.395000	992.958008	-12.442500	-57.277500	-10.202500
-77.775002	21.472000	937.143005	-10.268125	-41.860001	0.398125
-44.225002	-72.834000	1055.117065	-10.338125	-24.368750	12.162500
-57.218002	-107.725998	968.741028	-15.264375	-17.832500	14.122500
-74.786003	-122.854004	985.150024	-29.710625	-14.406875	17.346874
0.244000	-162.565002	1085.617065	-41.378750	-7.153125	-6.116250
126.026001	-244.975998	1093.058960	-21.428749	-21.227501	0.231875
107.237999	-226.615005	1016.504028	-0.428750	-16.415001	2.428125
191.356995	-146.522003	1043.466064	19.048750	-6.741875	-5.359375
143.106003	-133.834000	1018.273010	15.802500	-14.341250	0.822500
171.287994	-106.994003	1037.792969	25.291876	-22.338751	-4.961250
205.875000	-39.101002	1191.696045	37.314377	1.089375	-8.995000
165.615005	-66.063004	1158.634033	42.870625	32.689999	-6.365625
180.804001	25.254000	1160.586060	42.931873	19.026875	-7.266875
182.755997	-65.879997	1077.687012	43.863750	21.428749	-4.383750
146.400009	-19.642000	1067.744019	27.995625	-30.751875	-6.715625
232.837006	37.088001	1085.556030	22.601250	-11.926250	-2.848125
73.321999	-58.316002	862.845032	15.828750	-2.261875	-5.210625
144.875000	149.389008	988.992981	14.258125	-40.617500	-22.500626
200.628998	124.500999	976.671021	1.268750	-24.674999	-9.821875
210.266998	49.837002	887.854980	9.458750	-11.725000	2.856875
84.180000	274.561005	1165.466064	-13.711250	-4.125625	28.945000
73.139000	97.173004	956.906982	-23.476250	4.379375	26.687500
159.759003	106.201004	900.054993	11.501875	-14.153125	8.925000
167.811005	104.676003	1062.681030	10.583125	0.481250	5.600000
62.403000	254.309006	841.372986	7.669375	95.838753	-4.515000
-79.056000	145.302002	1290.394043	-10.325000	74.589378	-0.739375
-43.615002	62.890999	645.684998	-9.187500	-8.211875	-2.528750
-61.610001	152.500000	862.783997	-17.141251	48.339375	-27.479376
68.014999	130.479004	887.001038	-14.577500	-22.150625	-42.056873
156.281998	30.073000	1046.211060	-0.210000	1.535625	-30.646875
60.756001	67.527000	1037.915039	-1.067500	44.699375	-17.093124
-11.773000	24.461000	891.880981	-52.390625	-18.200001	-5.376875
100.345001	-96.806999	895.296997	-61.547501	-104.006874	4.283125
114.436005	-39.833000	1062.681030	-34.728748	-35.940624	-7.866250
32.085999	-39.284000	1012.356018	16.139376	85.312500	-49.271252
57.278999	66.734001	1230.979980	18.195625	106.023750	-69.295624
-7.808000	-43.310001	866.017029	-71.452499	51.869999	-81.637497
-146.643997	-105.286003	657.397034	-49.721874	-34.921249	-60.917500
-26.840000	-98.514999	847.473022	10.290000	-20.776875	-35.625626
-46.237999	-91.317001	1030.167969	-11.536875	6.352500	-19.849375
-24.461000	-86.070999	945.804993	-0.297500	26.779375	-7.008750
-123.037003	-115.412003	1138.321045	19.118750	28.612499	-0.039375
-46.970001	-71.613998	1004.364990	-1.929375	-4.445000	-1.277500
-32.939999	-90.829002	1030.473022	-5.241250	-11.051250	4.046875
-25.559000	-110.288002	1042.612061	-2.104375	1.470000	5.735625
-30.866001	-81.251999	1033.523071	-4.834375	7.914375	3.202500
-40.687000	-73.993004	1010.098999	-1.150625	7.931875	-0.669375
-44.164001	-96.196999	1010.892029	0.800625	2.187500	-3.171875
-39.833000	-84.057999	1009.549988	-1.645000	-1.338750	-2.765000
-40.748001	-79.483002	1014.979004	0.472500	-1.938125	-0.962500
-43.554001	-86.925003	1010.648010	0.205625	0.153125	-0.196875
-45.506001	-85.278000	1013.270996	-0.927500	2.152500	-0.201250
-43.188000	-90.036003	1012.721985	-0.118125	2.848125	-0.476875
-57.218002	-78.750999	1006.500000	-0.468125	-0.853125	-3.736250
-39.771999	-84.607002	1009.489014	0.363125	-2.275000	-4.042500
-47.885002	-99.795998	1011.989990	0.056875	-1.513750	-2.778125
-34.647999	-89.548004	1013.454041	-0.595000	0.721875	-0.704375
-43.737000	-84.973000	1015.833008	-0.463750	3.014375	-0.083125
-48.799999	-77.042999	994.726990	0.087500	-5.823125	-3.101875
-11.407001	-81.618004	1020.225037	4.186875	-26.879999	-9.318750
7.015000	-82.106003	1013.880981	4.799375	-30.931250	-10.276875
6.954000	-77.775002	1018.517029	2.725625	-22.351875	-8.706250
17.568001	-72.406998	1023.458008	0.481250	-5.989375	-3.290000
12.505000	-80.825005	1017.663025	-3.950625	21.971251	1.850625
-8.296000	-73.383003	1013.697998	-3.950625	21.621250	0.266875
-22.936001	-77.104004	1007.293030	-2.187500	10.950625	-1.579375
-29.585001	-82.777000	1012.416992	-0.595000	1.290625	-2.730000
-29.646000	-89.243004	1010.281982	0.875000	-7.809375	-3.500000
-9.821000	-88.450005	1010.892029	2.528750	-17.784374	-3.469375
3.782000	-75.274002	1013.637024	3.727500	-22.763124	-1.242500
22.143000	-77.958000	1013.942017	3.801875	-21.581875	0.818125
40.443001	-75.762001	1007.415039	2.975000	-17.084375	1.728125
38.186001	-66.917000	1013.210022	-0.612500	2.165625	2.318750
36.600002	-73.993004	1009.671997	-1.666875	7.717500	1.054375
35.624001	-75.396004	1007.231995	-1.351875	6.216875	-0.494375
33.916000	-77.835999	1010.587036	-0.402500	-0.070000	-1.750000
38.368999	-70.943001	1010.160034	0.437500	-5.403125	-1.579375
40.138000	-78.750999	1010.160034	0.708750	-5.473125	-0.468125
47.396999	-74.114998	1012.234009	-0.214375	-0.389375	-0.315000
43.066002	-70.820999	1012.721985	-0.997500	4.904375	-0.266875
34.587002	-72.590004	1012.234009	-1.163750	5.092500	-0.306250
35.136002	-70.638000	1008.085999	-0.494375	1.211875	-0.455000
43.005001	-75.274002	1010.892029	0.223125	-2.808750	-0.367500
45.811001	-77.714005	1012.721985	-0.459375	0.398125	-0.306250
39.589001	-66.856003	1013.332031	-0.879375	3.710000	-0.450625
38.430000	-72.528999	1016.442993	-0.940625	3.688125	-1.015000
36.112000	-69.479004	1011.135986	-0.840000	2.506875	-2.301250
38.552002	-72.101997	1011.624023	-0.656250	1.627500	-2.410625
42.395000	-72.590004	1008.452026	-0.818125	2.038750	-1.916250
28.670000	-74.907997	1010.892029	-1.255625	4.353125	-1.365000
27.084000	-72.711998	1012.234009	-1.474375	6.890625	-0.805000
27.084000	-78.507004	1006.622009	-1.470000	6.566875	-0.945000
20.313000	-69.845001	1015.710999	-1.054375	4.073125	-1.881250
15.494000	-73.809998	1007.171021	-0.516250	1.281875	-1.837500
12.444000	-87.840004	1012.051025	-0.354375	0.253750	-1.645000
14.030000	-88.328003	1009.306030	-0.275625	-0.319375	-1.461250
25.132000	-74.664001	1006.988037	-0.511875	-0.678125	-1.509375
19.337000	-62.464001	1017.114014	-0.245000	-0.428750	-1.382500
22.509001	-74.969002	1018.944031	-0.070000	0.240625	-0.726250
21.350000	-86.803001	1016.869995	-0.490000	1.474375	-0.402500
25.925001	-73.078003	1014.491028	-0.660625	1.946875	-0.389375
11.590000	-72.346001	1015.161987	0.008750	-1.198750	-0.048125
14.823000	-88.450005	1012.721985	0.280000	-1.973125	-0.109375
23.241001	-85.827003	1014.674011	0.275625	-1.675625	-0.288750
27.755001	-80.703003	1014.796021	0.113750	-1.421875	-0.363125
28.304001	-67.954002	1010.770020	-0.083125	-1.054375	-0.345625
26.352001	-72.346001	1014.734985	-0.100625	-0.389375	-0.161875
23.058001	-85.278000	1014.307983	-0.214375	0.958125	-0.135625
20.618000	-82.167000	1013.332031	-0.319375	2.008125	-0.223125
20.007999	-77.409004	1013.454041	-0.323750	2.178750	-0.376250
27.816000	-71.125999	1008.025024	-0.043750	-0.988750	-0.288750
